timestamp,acc_x,acc_y,acc_z,gyro_x,gyro_y,gyro_z
2024-01-01 00:00:00.000,0.413515,-1.2706,8.326044,0.191351,0.234963,-0.021513
2024-01-01 00:00:00.010,-0.115105,-0.573016,8.9696,0.268353,-0.375796,-0.004898
2024-01-01 00:00:00.020,0.539201,-0.275461,8.555176,0.124672,-0.065559,0.009644
2024-01-01 00:00:00.030,1.267922,1.2572,9.08007,-0.485624,-0.008332,0.142029
2024-01-01 00:00:00.040,-0.194933,0.370664,9.524752,-0.038856,0.003182,-0.112083
2024-01-01 00:00:00.050,-0.194919,-0.889431,10.92509,-0.288927,0.036099,-0.126952
2024-01-01 00:00:00.060,1.314695,0.3237,9.382216,-0.050651,0.122088,0.185493
2024-01-01 00:00:00.070,0.638889,-1.030504,7.697947,0.245001,-0.007081,-0.069397
2024-01-01 00:00:00.080,-0.390837,0.721072,11.32857,0.076288,-0.073612,-0.189455
2024-01-01 00:00:00.090,0.451681,-0.313769,8.694996,0.287023,-0.081518,-0.072769
2024-01-01 00:00:00.100,-0.385795,-0.062362,9.731784,0.085438,-0.122303,-0.049508
2024-01-01 00:00:00.110,-0.38772,0.882981,10.404787,-0.324581,0.157509,0.233244
2024-01-01 00:00:00.120,0.201434,-0.857251,10.075881,-0.630212,-0.129306,0.138724
2024-01-01 00:00:00.130,-1.592806,-0.930481,11.267447,0.037202,0.169354,0.172128
2024-01-01 00:00:00.140,-1.435994,-0.388677,10.448032,-0.053482,0.0038,0.122996
2024-01-01 00:00:00.150,-0.468104,0.69156,8.662736,-0.244236,-0.104251,0.141937
2024-01-01 00:00:00.160,-0.843182,-1.011884,12.711845,-0.425157,0.123681,-0.103212
2024-01-01 00:00:00.170,0.261611,-1.886216,10.068852,-0.183686,-0.145491,-0.02979
2024-01-01 00:00:00.180,-0.75593,-0.300472,9.613743,-0.048623,0.127637,-0.148487
2024-01-01 00:00:00.190,-1.175743,0.367459,11.093949,0.166469,0.042545,-0.031573
2024-01-01 00:00:00.200,1.220153,0.799374,10.142269,0.047158,-0.119265,0.102616
2024-01-01 00:00:00.210,-0.187959,-0.308465,10.341772,0.402017,0.105727,0.020187
2024-01-01 00:00:00.220,0.056217,-0.27401,13.129589,-0.258901,0.109318,0.196722
2024-01-01 00:00:00.230,-1.186103,0.768498,9.443538,0.220265,0.231504,-0.171212
2024-01-01 00:00:00.240,-0.453199,-1.245248,9.386742,0.011825,0.193229,0.075036
2024-01-01 00:00:00.250,0.092343,-0.258755,9.965283,0.173667,0.098255,-0.187245
2024-01-01 00:00:00.260,-0.958202,0.126822,11.237259,-0.109129,-0.225518,0.014126
2024-01-01 00:00:00.270,0.312769,0.29918,7.803297,0.26792,0.489717,0.11105
2024-01-01 00:00:00.280,-0.500032,-0.339531,7.19188,0.073806,-0.280723,-0.032175
2024-01-01 00:00:00.290,-0.242835,0.022938,9.027962,-0.169861,0.189853,0.082669
2024-01-01 00:00:00.300,-0.500921,-1.657226,7.633615,-0.003006,0.086257,-0.14396
2024-01-01 00:00:00.310,1.542022,-0.438393,9.244125,-0.059889,-0.234828,-0.249553
2024-01-01 00:00:00.320,-0.011236,0.302037,10.47933,0.122295,-0.02486,0.083554
2024-01-01 00:00:00.330,-0.880544,-0.654208,8.623523,-0.294944,-0.015751,0.261602
2024-01-01 00:00:00.340,0.684769,0.039283,7.909467,-0.007338,0.261117,-0.149407
2024-01-01 00:00:00.350,-1.016352,0.297617,9.902357,0.098827,-0.142662,0.183329
2024-01-01 00:00:00.360,0.173879,-0.228138,10.958908,0.008256,-0.052389,0.006514
2024-01-01 00:00:00.370,-1.631425,0.113529,7.552295,0.336735,-0.467214,-0.200354
2024-01-01 00:00:00.380,-1.105715,-0.64118,10.90255,0.193506,0.346953,-0.169726
2024-01-01 00:00:00.390,0.163887,-0.137603,10.898652,-0.00187,-0.214094,0.002368
2024-01-01 00:00:00.400,0.614773,0.406404,11.080841,0.054172,0.065382,-0.060669
2024-01-01 00:00:00.410,0.142664,0.104544,11.433016,0.073916,-0.020282,-0.196937
2024-01-01 00:00:00.420,-0.096277,-0.39063,12.743083,0.100825,-0.0196,-0.254106
2024-01-01 00:00:00.430,-0.250669,0.149328,9.335685,-0.456414,0.161972,-0.127008
2024-01-01 00:00:00.440,-1.23087,0.47593,9.955949,-0.075382,0.334252,0.029071
2024-01-01 00:00:00.450,-0.59927,-1.365261,9.255304,-0.37111,0.050299,-0.00096
2024-01-01 00:00:00.460,-0.383482,0.771943,9.812633,0.31957,0.131016,-0.075186
2024-01-01 00:00:00.470,0.880054,-0.223946,11.851787,-0.015212,0.065778,0.030283
2024-01-01 00:00:00.480,3.246062,0.283376,16.158441,-0.048335,0.203506,0.156004
2024-01-01 00:00:00.490,1.492269,0.797366,16.803082,0.224199,-0.092583,0.059119
2024-01-01 00:00:00.500,3.2298,-0.913535,19.784405,0.105581,0.215078,-0.018196
2024-01-01 00:00:00.510,2.639419,-0.472488,19.308689,-0.282159,0.2221,0.139211
2024-01-01 00:00:00.520,2.396462,-0.192173,17.466309,-0.017726,0.216507,-0.143978
2024-01-01 00:00:00.530,0.509221,-0.52198,10.948063,-0.083792,-0.13203,-0.033738
2024-01-01 00:00:00.540,0.858307,1.155468,10.2645,-0.436133,-0.033668,-0.030163
2024-01-01 00:00:00.550,0.775291,-0.57061,11.808366,-0.172569,0.047893,-0.185543
2024-01-01 00:00:00.560,-0.698649,-0.369994,9.909247,-0.045885,-0.274168,-0.062981
2024-01-01 00:00:00.570,-0.257419,0.136123,11.176142,-0.028738,0.318984,-0.311244
2024-01-01 00:00:00.580,0.275777,-0.800632,13.32916,-0.370558,-0.002455,0.286827
2024-01-01 00:00:00.590,0.812141,-0.263523,10.606668,0.287916,0.056786,-0.140612
2024-01-01 00:00:00.600,-0.398913,0.211424,9.875705,-0.025526,-0.115401,0.237917
2024-01-01 00:00:00.610,-0.154561,-0.221685,10.772299,0.009388,-0.265376,0.005713
2024-01-01 00:00:00.620,-0.921024,-0.062196,9.323446,0.10016,-0.120806,0.08473
2024-01-01 00:00:00.630,-0.995842,-0.352535,12.990773,-0.197019,0.043841,-0.07332
2024-01-01 00:00:00.640,0.676428,-1.008637,10.049855,0.114089,0.134686,0.031189
2024-01-01 00:00:00.650,1.12907,0.214181,9.446453,-0.091769,0.032358,0.097573
2024-01-01 00:00:00.660,-0.059948,1.168785,8.696862,-0.224146,0.069345,0.099683
2024-01-01 00:00:00.670,0.835441,0.012255,11.271497,0.143362,-0.067405,0.116216
2024-01-01 00:00:00.680,0.301062,0.150026,10.965094,0.372918,0.09925,-0.05525
2024-01-01 00:00:00.690,-0.537062,0.461353,9.147524,0.181207,0.296567,-0.072054
2024-01-01 00:00:00.700,0.300862,-0.845374,10.577833,0.230744,0.140958,-0.239126
2024-01-01 00:00:00.710,1.280415,1.133875,7.800603,-0.130158,0.161908,0.078483
2024-01-01 00:00:00.720,-0.029825,0.134751,10.056381,-0.399405,0.058803,0.162357
2024-01-01 00:00:00.730,1.302566,1.086817,10.413071,0.372534,-0.300631,0.242397
2024-01-01 00:00:00.740,-2.180938,-0.4882,12.084163,0.513629,-0.208933,0.045776
2024-01-01 00:00:00.750,0.684234,1.210829,8.783269,0.385702,0.090975,-0.114972
2024-01-01 00:00:00.760,0.072467,0.516254,8.107234,-0.083946,-0.002188,-0.254564
2024-01-01 00:00:00.770,-0.248924,0.368325,8.61729,-0.288659,0.087969,0.15625
2024-01-01 00:00:00.780,0.076391,0.15586,8.029691,-0.266421,0.335285,-0.269441
2024-01-01 00:00:00.790,-1.654651,-0.16552,11.590428,-0.420933,0.145207,-0.051091
2024-01-01 00:00:00.800,-0.182877,0.799554,11.872788,-0.026845,0.251777,-0.033646
2024-01-01 00:00:00.810,0.297296,0.09348,10.236528,0.401419,0.018936,-0.010418
2024-01-01 00:00:00.820,1.230347,-1.310068,11.436765,-0.035416,-0.161443,0.00537
2024-01-01 00:00:00.830,-0.43146,-0.744046,9.988433,0.075581,-0.011573,0.020722
2024-01-01 00:00:00.840,-0.673071,-0.123773,9.683311,0.343899,-0.16095,-0.362304
2024-01-01 00:00:00.850,-0.417713,0.206459,9.366394,-0.101024,0.311659,0.002198
2024-01-01 00:00:00.860,0.762072,-0.037688,9.396559,0.508883,0.158078,-0.334436
2024-01-01 00:00:00.870,0.273685,0.811835,7.748328,0.498024,0.104102,0.109833
2024-01-01 00:00:00.880,-0.441025,-1.299434,10.161987,-0.032778,0.247189,-0.083269
2024-01-01 00:00:00.890,0.427295,0.09563,9.756275,-0.144384,-0.404011,-0.323556
2024-01-01 00:00:00.900,0.080817,-1.210774,10.80282,0.17431,0.117628,-0.122131
2024-01-01 00:00:00.910,0.806397,0.505968,9.934573,-0.086881,-0.262129,-0.085511
2024-01-01 00:00:00.920,-0.584459,-0.06291,9.593279,-0.289139,-0.001451,0.178605
2024-01-01 00:00:00.930,-0.272779,0.27946,8.649571,0.32031,-0.062342,0.029496
2024-01-01 00:00:00.940,-0.32643,-0.575346,9.906108,0.304112,0.132347,0.051667
2024-01-01 00:00:00.950,-1.218376,0.852124,10.793332,0.038878,0.045637,0.177183
2024-01-01 00:00:00.960,0.24652,0.693789,8.287072,-0.315716,0.269023,-0.014422
2024-01-01 00:00:00.970,0.217329,0.388641,9.926515,-0.307382,-0.120379,0.113128
2024-01-01 00:00:00.980,0.004257,-0.086258,10.120413,0.026807,0.141823,0.102579
2024-01-01 00:00:00.990,-0.195294,0.386185,8.853538,-0.124968,0.032445,-0.19297
2024-01-01 00:00:01.000,-1.178296,-0.47079,9.026975,-0.085273,-0.327058,0.220948
2024-01-01 00:00:01.010,-0.350187,0.5698,10.117174,0.255491,-0.183723,-0.213045
2024-01-01 00:00:01.020,-0.28531,1.098554,8.300283,0.183295,-0.029976,0.137605
2024-01-01 00:00:01.030,-0.667896,0.713027,10.276098,0.344536,0.222458,-0.227561
2024-01-01 00:00:01.040,-0.13427,-0.485915,8.617388,-0.247656,0.092745,0.090186
2024-01-01 00:00:01.050,0.336372,0.240704,11.225721,-0.085798,-0.2335,0.279287
2024-01-01 00:00:01.060,1.57025,-0.861232,12.923987,0.189745,-0.028063,-0.031947
2024-01-01 00:00:01.070,0.145336,0.381212,8.663472,0.11202,0.403561,-0.038453
2024-01-01 00:00:01.080,0.214411,0.300102,10.521565,0.383095,0.022245,0.091566
2024-01-01 00:00:01.090,-0.061976,-1.245298,8.84198,0.105134,-0.065465,-0.049409
2024-01-01 00:00:01.100,-1.597377,-0.773748,11.196551,0.462027,0.098348,0.272742
2024-01-01 00:00:01.110,-0.022073,-0.188571,8.124676,0.135004,0.152679,0.028829
2024-01-01 00:00:01.120,0.050142,-0.200373,10.450142,0.265542,-0.091234,-0.048025
2024-01-01 00:00:01.130,2.050649,-0.805512,8.647179,-0.080879,0.100515,-0.081043
2024-01-01 00:00:01.140,-0.160141,0.25906,9.534297,0.003572,-0.065778,-0.139942
2024-01-01 00:00:01.150,0.251038,0.167481,8.436674,0.227736,0.143866,-0.094163
2024-01-01 00:00:01.160,-0.028898,-0.129383,10.905371,0.403245,0.033939,-0.052601
2024-01-01 00:00:01.170,-0.972924,-0.503357,8.695142,0.182309,0.096394,-0.073146
2024-01-01 00:00:01.180,0.9514,0.698439,10.545216,-0.020793,-0.151837,-0.098726
2024-01-01 00:00:01.190,0.625984,1.102501,9.351661,0.344334,-0.164257,0.314826
2024-01-01 00:00:01.200,0.658534,-0.322052,9.657523,-0.547995,0.189099,-0.154514
2024-01-01 00:00:01.210,-0.757065,-0.407703,10.006811,-0.355559,-0.015879,0.021995
2024-01-01 00:00:01.220,1.167826,0.327144,8.79525,0.170409,0.057007,0.088878
2024-01-01 00:00:01.230,-1.167041,-0.238448,10.090209,0.003527,-0.061279,0.094516
2024-01-01 00:00:01.240,0.488559,-0.092839,11.848406,0.151378,0.179745,-0.008791
2024-01-01 00:00:01.250,1.823554,0.492609,8.773578,0.016102,-0.121562,-0.036105
2024-01-01 00:00:01.260,-0.824621,-1.271631,11.370851,0.142736,-0.02712,0.067732
2024-01-01 00:00:01.270,-0.471443,0.877989,11.805466,-0.203601,0.157199,0.039978
2024-01-01 00:00:01.280,0.08296,0.048405,8.722882,0.142622,0.234594,-0.038844
2024-01-01 00:00:01.290,-0.419143,-0.274054,7.871867,0.248604,-0.104752,-0.234282
2024-01-01 00:00:01.300,-1.290927,-0.05943,10.212212,0.305138,0.391937,-0.070189
2024-01-01 00:00:01.310,0.057079,-0.025022,9.080853,0.503389,0.062648,-0.171983
2024-01-01 00:00:01.320,-0.884368,-1.15298,12.298979,0.061025,-0.208586,-0.100074
2024-01-01 00:00:01.330,0.394266,0.995629,9.856364,0.068478,0.07381,0.004983
2024-01-01 00:00:01.340,-0.765421,0.027523,8.74147,-0.380793,-0.0766,0.05381
2024-01-01 00:00:01.350,1.29032,0.295039,8.281984,-0.132853,0.086814,0.267068
2024-01-01 00:00:01.360,-0.652058,0.633732,11.261753,-0.048271,-0.008571,-0.080611
2024-01-01 00:00:01.370,-0.268116,-0.680094,9.049183,0.26258,0.014855,0.116194
2024-01-01 00:00:01.380,0.677253,0.315332,9.86838,-0.15275,-0.182319,0.045894
2024-01-01 00:00:01.390,-1.024695,-0.178249,11.083129,0.199085,0.198012,0.1944
2024-01-01 00:00:01.400,0.18936,0.563949,9.164968,-0.000405,-0.231225,0.086434
2024-01-01 00:00:01.410,1.088196,-1.416733,9.748823,-0.044292,-0.221753,-0.151272
2024-01-01 00:00:01.420,-1.33823,-0.065997,9.787931,0.062223,0.073472,-0.258457
2024-01-01 00:00:01.430,0.153708,-0.401479,10.720188,-0.097789,0.320569,0.046689
2024-01-01 00:00:01.440,0.216352,0.287887,10.596871,-0.107259,-0.070519,-0.079268
2024-01-01 00:00:01.450,0.650868,0.313049,9.516809,-0.426196,0.140194,-0.147047
2024-01-01 00:00:01.460,-1.029761,-0.471279,9.894781,-0.061989,0.214668,-0.190137
2024-01-01 00:00:01.470,-1.09928,-0.474308,9.31479,-0.119992,0.162937,0.024146
2024-01-01 00:00:01.480,0.434516,-0.073703,7.84182,-0.128995,-0.062242,0.226156
2024-01-01 00:00:01.490,0.24724,-0.597164,10.153124,0.104218,-0.218209,-0.061301
2024-01-01 00:00:01.500,0.208535,0.560761,12.330399,0.164658,-0.44151,0.088541
2024-01-01 00:00:01.510,0.288418,-0.245892,8.632886,0.058049,-0.052568,-0.01534
2024-01-01 00:00:01.520,-0.566121,-1.936054,8.780324,0.248854,0.235617,-0.193407
2024-01-01 00:00:01.530,0.193351,-0.249631,8.650191,0.14389,-0.224833,0.110222
2024-01-01 00:00:01.540,0.243983,-0.69167,10.775156,-0.073764,0.140042,-0.164204
2024-01-01 00:00:01.550,-0.594698,-1.08643,10.407383,-0.115714,-0.190031,0.003244
2024-01-01 00:00:01.560,1.553257,-0.824126,9.598828,0.078206,0.021215,-0.051228
2024-01-01 00:00:01.570,0.394466,0.072866,8.587199,0.143442,0.141558,0.133962
2024-01-01 00:00:01.580,-0.99176,0.884875,9.933046,0.349461,-0.131899,-0.158723
2024-01-01 00:00:01.590,0.546581,0.208581,7.725923,0.297793,0.034097,0.05863
2024-01-01 00:00:01.600,-0.811422,-0.403931,10.001044,-0.135368,-0.083018,-0.12597
2024-01-01 00:00:01.610,0.655248,0.303632,10.97087,-0.025502,0.14103,-0.076666
2024-01-01 00:00:01.620,0.964531,-0.305754,8.143403,0.167754,0.047063,-0.54528
2024-01-01 00:00:01.630,-0.683218,-0.462604,7.768686,0.266999,0.011302,0.313815
2024-01-01 00:00:01.640,0.802011,-0.768806,11.913811,0.234742,0.31167,0.082584
2024-01-01 00:00:01.650,0.34364,-1.166718,8.995136,-0.015969,0.132461,-0.115102
2024-01-01 00:00:01.660,0.684365,-0.259689,11.323083,-0.313506,-0.13807,-0.168698
2024-01-01 00:00:01.670,1.57908,0.105264,9.604875,-0.249734,-0.017173,-0.074347
2024-01-01 00:00:01.680,-0.204286,-0.064351,9.594276,0.068158,-0.01518,0.107532
2024-01-01 00:00:01.690,2.332515,-0.277034,18.533966,0.085556,0.016064,-0.283813
2024-01-01 00:00:01.700,2.219479,-0.629867,16.772514,-0.27467,0.504902,-0.021238
2024-01-01 00:00:01.710,2.280838,0.405092,18.126486,0.011142,0.07417,0.265596
2024-01-01 00:00:01.720,2.895813,-0.87721,17.441856,0.157806,-0.407181,-0.170092
2024-01-01 00:00:01.730,3.244009,0.516835,16.191103,-0.287807,-0.10856,0.012058
2024-01-01 00:00:01.740,0.230345,-0.667477,10.259526,0.276249,-0.386474,0.330496
2024-01-01 00:00:01.750,0.68863,-0.501122,9.459274,-0.094383,-0.06596,0.094823
2024-01-01 00:00:01.760,0.010824,-0.976879,9.600843,0.314403,-0.397462,0.018889
2024-01-01 00:00:01.770,1.210067,-0.333934,8.198066,-0.133363,-0.174318,0.075995
2024-01-01 00:00:01.780,-0.220327,0.649558,11.929745,-0.256656,-0.304144,-0.06013
2024-01-01 00:00:01.790,2.264541,0.343408,10.977783,-0.114534,0.076832,0.194945
2024-01-01 00:00:01.800,0.520868,0.651629,11.094256,-0.023787,0.000108,-0.0599
2024-01-01 00:00:01.810,-0.713584,0.347747,9.403148,-0.09712,0.060592,-0.293877
2024-01-01 00:00:01.820,-0.891518,-0.735044,7.506728,-0.054,-0.02091,-0.058695
2024-01-01 00:00:01.830,0.401658,-0.220306,12.411286,0.083491,-0.27886,-0.14501
2024-01-01 00:00:01.840,-0.186033,-0.519613,9.728618,-0.042795,0.102704,-0.042179
2024-01-01 00:00:01.850,0.594405,0.886163,8.812599,-0.016528,0.384445,-0.038863
2024-01-01 00:00:01.860,0.39397,-0.797061,10.36518,-0.427307,0.081843,0.179613
2024-01-01 00:00:01.870,-0.06063,0.595203,11.364605,0.097925,-0.085185,0.104294
2024-01-01 00:00:01.880,-0.704956,0.594707,9.779297,-0.022301,-0.285613,0.03949
2024-01-01 00:00:01.890,-1.26111,1.218527,11.513062,0.402573,-0.181613,-0.000442
2024-01-01 00:00:01.900,-0.371724,-0.272851,11.252556,-0.234891,0.090608,-0.158829
2024-01-01 00:00:01.910,0.712952,0.474407,8.37626,-0.452074,0.214624,-0.327176
2024-01-01 00:00:01.920,0.178233,1.51958,8.912512,0.154517,0.052173,0.016974
2024-01-01 00:00:01.930,-1.037078,-0.411349,11.08544,0.086632,0.159977,0.119196
2024-01-01 00:00:01.940,0.144173,-1.022337,6.1968,-0.252108,0.141536,-0.01625
2024-01-01 00:00:01.950,0.320777,-1.252087,9.610925,-0.382437,0.101307,-0.080228
2024-01-01 00:00:01.960,-0.735811,0.474666,7.904133,0.384349,-0.131695,0.069675
2024-01-01 00:00:01.970,0.127976,-1.254178,9.17523,0.353528,0.034785,-0.0125
2024-01-01 00:00:01.980,0.048459,-0.247964,9.411972,-0.621864,-0.169676,0.252862
2024-01-01 00:00:01.990,-0.951523,0.291251,9.332818,-0.114556,0.003486,0.184909
2024-01-01 00:00:02.000,0.297858,0.123327,9.074388,0.416048,0.066173,0.143926
2024-01-01 00:00:02.010,0.466853,0.283346,8.348605,-0.119016,0.335757,0.11366
2024-01-01 00:00:02.020,0.90164,0.148045,12.862826,-0.122653,-0.261946,-0.193525
2024-01-01 00:00:02.030,0.87729,0.851725,12.297459,-0.07069,0.096302,0.099449
2024-01-01 00:00:02.040,-1.14691,-0.634243,8.262128,-0.280224,0.296247,0.056449
2024-01-01 00:00:02.050,-0.780739,-0.450879,11.91738,-0.426194,0.15177,0.090964
2024-01-01 00:00:02.060,0.428767,-0.514591,9.277912,0.263137,0.166589,0.073891
2024-01-01 00:00:02.070,0.427727,0.552908,9.982078,-0.460734,0.117539,0.067914
2024-01-01 00:00:02.080,0.428777,0.599665,9.725719,0.061818,0.259667,0.40513
2024-01-01 00:00:02.090,6.167399,0.300516,17.071215,0.221645,-0.217496,-0.011428
2024-01-01 00:00:02.100,3.435266,0.788207,19.260491,-0.362807,-0.277185,0.140451
2024-01-01 00:00:02.110,3.905358,-0.784575,18.117681,-0.231067,-0.001267,-0.070648
2024-01-01 00:00:02.120,3.754206,1.110371,17.315234,0.303295,-0.432232,0.118596
2024-01-01 00:00:02.130,3.502283,1.014477,16.212287,0.133223,0.246129,0.140898
2024-01-01 00:00:02.140,-0.262462,0.489924,8.619731,-0.154321,0.244143,0.054664
2024-01-01 00:00:02.150,0.631842,1.186678,7.623682,0.300562,-0.08667,0.250387
2024-01-01 00:00:02.160,-0.643377,-1.103311,9.826282,0.301634,-0.074154,-0.132641
2024-01-01 00:00:02.170,-0.197151,-0.349282,8.216041,0.067263,-0.014469,-0.073083
2024-01-01 00:00:02.180,-0.404065,-0.489712,9.456273,-0.22504,0.010404,0.031857
2024-01-01 00:00:02.190,0.06816,0.480505,11.634976,-0.103362,0.025435,0.132121
2024-01-01 00:00:02.200,1.926953,-0.699394,11.407467,0.071597,0.111646,0.026914
2024-01-01 00:00:02.210,-1.554498,0.504492,9.767007,-0.047149,-0.034525,0.192864
2024-01-01 00:00:02.220,0.571312,0.912777,9.694003,0.234739,0.188639,-0.099253
2024-01-01 00:00:02.230,-1.342586,0.463005,12.313993,-0.382444,0.08919,-0.171087
2024-01-01 00:00:02.240,-0.392883,0.188978,10.503647,-0.373566,-0.121393,0.046219
2024-01-01 00:00:02.250,0.906551,-0.657924,9.373362,0.045218,0.267023,-0.011577
2024-01-01 00:00:02.260,0.053513,-0.564003,7.910544,-0.122886,-0.271651,0.08143
2024-01-01 00:00:02.270,-0.897223,0.832246,10.334639,-0.156762,-0.018433,-0.00411
2024-01-01 00:00:02.280,-0.59549,0.519046,10.914659,-0.442014,0.193383,-0.051003
2024-01-01 00:00:02.290,0.565765,-0.025987,8.96864,0.004886,-0.144615,-0.011241
2024-01-01 00:00:02.300,-0.60803,-0.278328,10.197882,-0.013189,0.061911,0.004327
2024-01-01 00:00:02.310,0.180202,-1.349188,9.32572,0.16337,0.108668,-0.045747
2024-01-01 00:00:02.320,0.037939,-0.713188,9.564869,0.017227,-0.172105,-0.03047
2024-01-01 00:00:02.330,-0.542457,1.273005,6.496221,-0.033151,-0.014496,-0.060539
2024-01-01 00:00:02.340,1.784833,-0.852783,9.514587,0.29425,-0.031301,0.1285
2024-01-01 00:00:02.350,0.527738,0.126194,11.1012,-0.328117,-0.110348,0.029103
2024-01-01 00:00:02.360,-1.685931,0.670958,8.968972,0.134097,0.460335,0.338513
2024-01-01 00:00:02.370,0.155223,-0.835778,9.879965,-0.417787,-0.152621,0.024106
2024-01-01 00:00:02.380,-0.550937,0.123017,8.803074,-0.20959,0.200986,-0.082629
2024-01-01 00:00:02.390,0.709651,0.624652,10.290108,-0.303164,-0.07856,0.400601
2024-01-01 00:00:02.400,-0.659774,0.008325,9.521591,0.195486,-0.217327,0.062044
2024-01-01 00:00:02.410,-0.095518,1.910356,8.55893,-0.016353,0.020563,0.148519
2024-01-01 00:00:02.420,0.420402,-1.111287,11.584959,-0.003376,0.129819,0.088815
2024-01-01 00:00:02.430,0.720741,0.705113,11.047337,-0.276683,0.184102,0.093452
2024-01-01 00:00:02.440,-0.999247,-0.115086,9.004264,-0.074923,0.312453,0.080348
2024-01-01 00:00:02.450,-0.278472,0.514099,10.473054,-0.190866,0.589049,-0.165313
2024-01-01 00:00:02.460,-0.395392,0.293911,10.525833,0.095864,0.050103,0.055129
2024-01-01 00:00:02.470,-0.543897,-0.488282,10.665545,-0.247773,-0.132618,-0.198729
2024-01-01 00:00:02.480,1.469741,0.152512,7.553251,0.332449,0.090575,-0.026154
2024-01-01 00:00:02.490,0.337147,-1.237362,11.1508,-0.418895,-0.053243,-0.108843
2024-01-01 00:00:02.500,-1.049686,0.401763,9.051161,-0.20163,0.185193,0.053621
2024-01-01 00:00:02.510,0.76412,0.198574,9.333373,0.4193,-0.259433,0.050119
2024-01-01 00:00:02.520,1.766695,0.425348,13.323658,-0.108785,0.473667,0.072172
2024-01-01 00:00:02.530,0.859527,0.704707,10.212095,-0.32872,0.17121,0.043094
2024-01-01 00:00:02.540,-1.264875,0.244835,9.295418,0.054768,-0.336801,-0.091024
2024-01-01 00:00:02.550,-0.403125,0.098628,6.872548,-0.118848,-0.141806,-0.039151
2024-01-01 00:00:02.560,1.054704,-0.586792,11.661166,-0.208968,0.163216,0.138059
2024-01-01 00:00:02.570,-0.589135,-0.474339,8.018181,-0.273968,0.235269,0.160179
2024-01-01 00:00:02.580,0.36948,0.790365,8.473419,0.692093,-0.254448,-0.172017
2024-01-01 00:00:02.590,0.644883,0.956599,9.368639,-0.062888,0.142605,-0.229639
2024-01-01 00:00:02.600,-0.77167,-0.158582,11.696661,-0.481392,-0.389468,-0.109033
2024-01-01 00:00:02.610,-0.049555,0.030638,10.839956,0.373427,-0.017867,0.156781
2024-01-01 00:00:02.620,-2.698355,-0.602473,9.59976,0.152768,0.222409,0.182233
2024-01-01 00:00:02.630,-0.852803,0.781056,10.220645,-0.191617,-0.110303,-0.138707
2024-01-01 00:00:02.640,-0.210263,0.443168,9.010286,-0.23328,-0.301384,0.046096
2024-01-01 00:00:02.650,-1.038779,1.292851,9.996019,0.168368,0.029243,0.275165
2024-01-01 00:00:02.660,1.358982,-0.584963,9.907685,-0.06173,-0.120944,0.062297
2024-01-01 00:00:02.670,-1.190593,-0.251753,11.100402,-0.481494,0.125912,0.213225
2024-01-01 00:00:02.680,-0.366337,0.154143,11.098281,0.44681,-0.177065,0.149809
2024-01-01 00:00:02.690,0.108842,0.430562,10.467978,-0.108498,-0.154527,-0.13653
2024-01-01 00:00:02.700,1.19986,-0.143635,9.327353,0.373893,-0.4042,-0.028497
2024-01-01 00:00:02.710,-1.195355,-0.581392,10.798107,0.319609,0.033989,0.005213
2024-01-01 00:00:02.720,0.968334,0.587017,9.687498,-0.250252,-0.032181,0.01562
2024-01-01 00:00:02.730,0.008519,0.480276,8.36889,0.258297,-0.237677,0.137449
2024-01-01 00:00:02.740,-0.817106,-0.610239,9.272821,-0.162861,0.03876,0.061303
2024-01-01 00:00:02.750,0.384701,0.902725,9.92259,-0.466675,0.205414,-0.44043
2024-01-01 00:00:02.760,0.165717,0.779352,11.022407,-0.10615,-0.043114,-0.196926
2024-01-01 00:00:02.770,-0.499681,0.089441,9.56554,0.099409,0.053633,-0.328107
2024-01-01 00:00:02.780,0.05811,0.053012,8.199347,-0.115684,0.054662,0.026305
2024-01-01 00:00:02.790,-0.320774,0.369002,9.88558,-0.076762,-0.240866,0.036073
2024-01-01 00:00:02.800,0.094503,-0.573894,9.961123,0.285892,0.411317,0.042484
2024-01-01 00:00:02.810,0.551224,0.020001,10.057536,0.026623,-0.09417,-0.143839
2024-01-01 00:00:02.820,1.320359,-1.433487,11.035269,-0.210825,0.131223,0.101122
2024-01-01 00:00:02.830,-1.030481,0.583719,11.167206,0.175508,0.153843,0.107439
2024-01-01 00:00:02.840,1.77575,-1.039954,9.018511,0.049419,-0.027919,-0.188272
2024-01-01 00:00:02.850,-1.625113,1.001278,8.989297,-0.630401,0.121359,-0.219906
2024-01-01 00:00:02.860,-0.126361,-0.21986,8.424455,0.107088,0.049164,-2e-05
2024-01-01 00:00:02.870,0.489774,-0.14097,10.740822,0.097957,-0.283528,0.268767
2024-01-01 00:00:02.880,0.233926,-0.418071,11.739828,0.00503,-0.066455,0.254961
2024-01-01 00:00:02.890,-0.518397,-0.191834,9.390311,0.222925,-0.12251,0.084511
2024-01-01 00:00:02.900,-0.173262,0.944742,9.488414,-0.168098,-0.092349,-0.1095
2024-01-01 00:00:02.910,-0.410423,-1.656881,11.763754,0.084125,-0.260801,0.133026
2024-01-01 00:00:02.920,-0.490646,0.850459,10.483403,-0.39174,0.225287,-0.067864
2024-01-01 00:00:02.930,0.707294,0.225124,10.391066,0.101773,0.320399,-0.115126
2024-01-01 00:00:02.940,0.297215,-0.803876,8.223699,0.488265,0.195601,-0.321595
2024-01-01 00:00:02.950,-0.576847,-0.716158,10.714066,-0.248714,0.254106,0.015357
2024-01-01 00:00:02.960,0.748917,1.116478,8.57239,-0.189951,-0.068927,-0.09448
2024-01-01 00:00:02.970,0.255827,-0.629708,8.299485,-0.177504,-0.127251,0.014465
2024-01-01 00:00:02.980,0.676708,-0.768131,9.3481,0.0325,-0.155717,-0.344904
2024-01-01 00:00:02.990,0.524166,0.757451,9.029724,-0.265759,0.128813,0.025474
2024-01-01 00:00:03.000,-0.690138,0.225476,9.514829,0.105312,0.045413,-0.364668
2024-01-01 00:00:03.010,-0.466351,-0.624658,7.890612,0.21171,-0.015444,0.163191
2024-01-01 00:00:03.020,0.622122,0.144272,11.087143,0.133587,0.25903,0.078284
2024-01-01 00:00:03.030,0.508133,-0.683151,11.312078,-0.442104,0.080988,-0.0418
2024-01-01 00:00:03.040,-0.017401,0.733147,7.21614,0.248792,-0.167732,0.084408
2024-01-01 00:00:03.050,0.097675,0.706873,11.113306,0.234342,-0.136182,-0.146711
2024-01-01 00:00:03.060,1.063656,0.354316,8.730376,0.20754,0.136399,0.010856
2024-01-01 00:00:03.070,-0.492483,0.240866,10.951491,0.093211,0.208347,0.119216
2024-01-01 00:00:03.080,0.455459,1.172951,9.718829,0.055047,0.110336,-0.464143
2024-01-01 00:00:03.090,-0.168325,-0.000209,9.848329,0.258097,0.379378,-0.067084
2024-01-01 00:00:03.100,-0.18122,-0.787128,9.56345,0.480878,0.327001,-0.003397
2024-01-01 00:00:03.110,0.914732,0.29935,11.424556,-0.23826,0.088207,-0.029444
2024-01-01 00:00:03.120,0.687159,1.389307,8.158869,0.269531,-0.167716,0.218565
2024-01-01 00:00:03.130,0.677247,-0.67583,10.619643,-0.021554,-0.261998,-0.168585
2024-01-01 00:00:03.140,1.086811,-0.240734,11.276972,-0.032418,-0.077476,-0.093174
2024-01-01 00:00:03.150,0.017486,0.277353,10.764165,-0.384133,0.150643,-0.28738
2024-01-01 00:00:03.160,0.567726,-0.035901,12.906499,-0.071197,0.365329,0.226543
2024-01-01 00:00:03.170,-0.258297,-0.654214,9.105443,-0.249316,0.083489,-0.036944
2024-01-01 00:00:03.180,0.269868,0.747157,11.08513,-0.115964,0.233745,-0.065761
2024-01-01 00:00:03.190,-0.108344,1.545147,9.668687,-0.274547,-0.049061,-0.007872
2024-01-01 00:00:03.200,0.080749,0.130624,11.452897,-0.112227,0.124554,0.095435
2024-01-01 00:00:03.210,0.495468,-0.602109,9.799758,-0.101528,0.164671,0.052105
2024-01-01 00:00:03.220,-0.681169,-1.031608,9.293349,0.024189,-0.395919,0.397183
2024-01-01 00:00:03.230,1.741912,0.171812,11.549688,-0.403687,-0.082688,0.06809
2024-01-01 00:00:03.240,-0.837509,0.735182,9.155239,-0.36138,0.18994,-0.069787
2024-01-01 00:00:03.250,-1.010812,0.316462,7.928249,0.090479,0.054894,-0.084204
2024-01-01 00:00:03.260,0.964127,-0.001601,9.12156,-0.19936,-0.239303,-0.058914
2024-01-01 00:00:03.270,0.659059,-0.392455,10.634552,0.268632,-0.486024,-0.225276
2024-01-01 00:00:03.280,0.51958,-0.727381,11.664196,0.056317,-0.073156,0.00598
2024-01-01 00:00:03.290,0.523098,0.555944,9.958024,0.151691,-0.014317,0.11752
2024-01-01 00:00:03.300,2.949805,0.608572,19.705838,0.352673,-0.176785,-0.092005
2024-01-01 00:00:03.310,2.213036,-1.029456,16.140911,-0.077428,0.028617,-0.121107
2024-01-01 00:00:03.320,3.023107,1.058833,17.359573,-0.143622,0.101277,0.227392
2024-01-01 00:00:03.330,2.396263,0.382331,17.565618,0.217926,0.134137,-0.213972
2024-01-01 00:00:03.340,3.771787,0.93213,17.797407,0.127378,-0.471184,-0.310173
2024-01-01 00:00:03.350,-0.122425,-0.893857,9.922014,-0.046833,-0.262857,-0.172935
2024-01-01 00:00:03.360,-0.687226,-0.909639,10.730293,0.347864,-0.060925,-0.231065
2024-01-01 00:00:03.370,-0.267554,-0.099214,9.217517,-0.053061,0.114435,0.057934
2024-01-01 00:00:03.380,0.343765,0.334854,9.995186,0.008193,0.097847,-0.054106
2024-01-01 00:00:03.390,-0.469301,1.196376,9.749896,0.005306,0.094374,-0.032953
2024-01-01 00:00:03.400,-0.684498,0.470249,8.576715,-0.233648,-0.076684,0.17294
2024-01-01 00:00:03.410,0.20287,-0.161626,9.658596,0.019396,-0.065527,-0.1037
2024-01-01 00:00:03.420,0.203935,-0.683562,9.618646,0.34919,-0.145666,0.116263
2024-01-01 00:00:03.430,-0.42203,0.81918,9.590113,0.111242,0.153639,0.226698
2024-01-01 00:00:03.440,-0.392139,-0.642494,9.852304,0.007766,-0.184098,-0.068349
2024-01-01 00:00:03.450,0.193182,1.08456,9.910797,-0.040442,0.170007,0.110553
2024-01-01 00:00:03.460,-1.20553,-0.1894,9.234183,0.082717,0.041571,-0.036273
2024-01-01 00:00:03.470,-1.171714,1.059328,11.505256,0.187442,-0.009009,0.138615
2024-01-01 00:00:03.480,-0.598105,0.452168,8.252252,0.15231,-0.131342,-0.235723
2024-01-01 00:00:03.490,-0.177695,-0.091239,8.849668,-0.082966,-0.271108,-0.246827
2024-01-01 00:00:03.500,0.258831,-0.345918,13.512912,0.081195,-0.129531,-0.05869
2024-01-01 00:00:03.510,1.228234,-0.227045,8.427396,0.119985,-0.066001,-0.133339
2024-01-01 00:00:03.520,0.714002,0.285259,8.006799,-0.251799,-0.473805,-0.077506
2024-01-01 00:00:03.530,-0.133149,0.051386,10.788323,0.042058,-0.039471,-0.032929
2024-01-01 00:00:03.540,-0.015831,-0.395478,7.043276,-0.540326,0.184871,0.108002
2024-01-01 00:00:03.550,-0.834606,-0.110311,9.496615,0.120633,0.113444,-0.061149
2024-01-01 00:00:03.560,-0.015412,0.052332,12.668239,0.165086,-0.099241,-0.123579
2024-01-01 00:00:03.570,-0.240308,-1.417737,7.752145,0.186887,0.009387,-0.052727
2024-01-01 00:00:03.580,0.268663,0.30514,7.170023,-0.098762,-0.111233,-0.115372
2024-01-01 00:00:03.590,-0.68867,-0.652494,7.813091,0.077262,0.029752,-0.140101
2024-01-01 00:00:03.600,0.432356,-0.768119,11.006615,0.355988,0.308022,-0.241953
2024-01-01 00:00:03.610,1.276005,-1.123771,11.308203,0.353442,0.1937,0.010422
2024-01-01 00:00:03.620,-0.090543,-1.194732,9.127232,-0.007293,0.104159,-0.085306
2024-01-01 00:00:03.630,0.334425,-0.902728,10.720039,0.03483,-0.098577,0.144942
2024-01-01 00:00:03.640,0.574545,-0.472208,11.66182,0.277728,0.149988,-0.217109
2024-01-01 00:00:03.650,-0.334016,1.300871,12.190745,-0.375201,-0.337375,-0.081313
2024-01-01 00:00:03.660,0.186557,-0.350236,9.481881,-0.080769,-0.050471,0.271936
2024-01-01 00:00:03.670,0.010483,0.118382,6.74444,0.333893,0.116742,-0.140941
2024-01-01 00:00:03.680,0.081315,0.266721,8.716589,0.2438,0.148084,-0.03548
2024-01-01 00:00:03.690,-0.643531,0.087289,9.241497,0.092316,0.133977,-0.182377
2024-01-01 00:00:03.700,2.980405,-0.051577,17.605094,-0.376458,0.058966,-0.202264
2024-01-01 00:00:03.710,3.374584,-0.796066,17.699771,-0.012478,-0.039145,0.232097
2024-01-01 00:00:03.720,4.168077,0.966318,19.440368,-0.147479,0.107595,0.025656
2024-01-01 00:00:03.730,3.758593,1.203593,19.647539,0.08276,-0.190572,0.020052
2024-01-01 00:00:03.740,4.752524,-1.120651,17.721331,-0.202337,-0.168935,-0.254447
2024-01-01 00:00:03.750,-0.638817,-0.682003,11.273182,-0.256431,0.012347,0.053811
2024-01-01 00:00:03.760,0.726207,-0.186354,10.286405,-0.516216,0.03464,0.173613
2024-01-01 00:00:03.770,0.152632,-0.642382,9.895922,0.305451,-0.365123,0.172422
2024-01-01 00:00:03.780,1.823011,0.336973,11.017517,-0.099943,0.091029,0.10025
2024-01-01 00:00:03.790,-0.672908,-0.485029,9.90624,0.039286,0.154546,-0.169423
2024-01-01 00:00:03.800,-0.699068,1.441927,12.551004,-0.00056,-0.015457,0.046969
2024-01-01 00:00:03.810,-0.498994,0.792905,7.894036,-0.266858,0.474893,0.100138
2024-01-01 00:00:03.820,-1.768143,0.141574,9.123792,-0.314766,-0.136587,-0.269167
2024-01-01 00:00:03.830,-0.437691,0.683973,9.641477,-0.251329,-0.072217,-0.168192
2024-01-01 00:00:03.840,-0.631978,0.73653,10.395351,-0.180792,-0.079013,0.133224
2024-01-01 00:00:03.850,0.125203,-0.375589,11.498923,0.091652,-0.015238,0.131407
2024-01-01 00:00:03.860,0.284512,-0.543601,9.777501,-0.198929,-0.065745,-0.232287
2024-01-01 00:00:03.870,1.561912,0.052043,7.91559,0.436623,-0.281362,0.119253
2024-01-01 00:00:03.880,0.791228,0.57385,10.932229,0.256788,-0.10931,0.014296
2024-01-01 00:00:03.890,-0.480272,0.092614,10.815605,0.20209,-0.019524,0.117151
2024-01-01 00:00:03.900,-0.74793,-1.05028,7.223444,-0.029915,0.245714,-0.095178
2024-01-01 00:00:03.910,0.409523,-0.534681,9.804933,0.37857,0.440449,0.096778
2024-01-01 00:00:03.920,-1.099094,-0.049266,7.691931,-0.054501,0.267095,0.126574
2024-01-01 00:00:03.930,1.524689,-0.050393,8.924685,-0.007815,-0.155076,-0.0527
2024-01-01 00:00:03.940,0.981884,1.313713,8.607459,0.042494,-0.139162,0.002663
2024-01-01 00:00:03.950,-0.390589,-0.923068,10.887941,0.175456,-0.031866,-0.097278
2024-01-01 00:00:03.960,-1.426184,0.336722,9.965618,0.159227,0.356912,0.247746
2024-01-01 00:00:03.970,1.127099,0.991749,8.097593,-0.118781,-0.033085,-0.018041
2024-01-01 00:00:03.980,-0.095354,1.512786,10.982248,-0.133248,-0.265501,-0.138304
2024-01-01 00:00:03.990,1.030482,-0.269329,7.900171,0.159976,-0.100235,-0.107374
2024-01-01 00:00:04.000,-1.327361,0.327292,10.249712,0.178809,0.151411,0.019016
2024-01-01 00:00:04.010,-0.49898,0.37946,8.725738,-0.098338,0.137988,0.113
2024-01-01 00:00:04.020,0.004365,0.130191,9.322918,-0.396797,-0.040043,-0.200374
2024-01-01 00:00:04.030,0.039111,-0.065831,10.481689,-0.051829,0.136683,0.277149
2024-01-01 00:00:04.040,-0.37468,0.29036,10.504571,0.155881,-0.454634,0.046301
2024-01-01 00:00:04.050,0.518523,-1.686476,11.590843,0.451354,0.020766,0.069968
2024-01-01 00:00:04.060,-0.888794,0.454258,9.700438,-0.299489,0.172137,-0.014578
2024-01-01 00:00:04.070,-0.118531,0.084034,10.218193,-0.106643,-0.166573,0.002889
2024-01-01 00:00:04.080,0.100146,-0.148168,9.226934,-0.097351,-0.167268,-0.022242
2024-01-01 00:00:04.090,0.42827,1.36321,10.052411,0.338951,-0.37329,0.152669
2024-01-01 00:00:04.100,0.592419,-0.449506,10.395395,-0.008735,0.317979,-0.001189
2024-01-01 00:00:04.110,-0.936265,-0.268449,9.679051,-0.226832,-0.144031,0.115058
2024-01-01 00:00:04.120,-1.27715,1.326374,7.407404,0.139674,0.048209,-0.065077
2024-01-01 00:00:04.130,1.063666,-0.554153,10.251519,-0.10116,0.120783,0.029346
2024-01-01 00:00:04.140,0.276651,-0.366377,10.295596,-0.306097,0.302414,-0.120588
2024-01-01 00:00:04.150,-0.623115,-0.097919,8.904009,-0.223193,-0.03078,0.182479
2024-01-01 00:00:04.160,1.291334,0.559929,8.099196,0.43351,-0.107886,-0.125062
2024-01-01 00:00:04.170,0.096299,0.138396,11.775871,0.096052,0.034614,-0.048747
2024-01-01 00:00:04.180,0.981765,-0.860888,10.464605,0.02694,0.256816,-0.047244
2024-01-01 00:00:04.190,0.056209,-0.354424,9.504864,-0.062473,-0.034035,-0.053093
2024-01-01 00:00:04.200,1.715573,-0.404498,8.295472,0.073037,-0.190974,0.108374
2024-01-01 00:00:04.210,1.461321,-0.051429,8.715343,0.070059,-0.308152,-0.047499
2024-01-01 00:00:04.220,-0.207263,0.283612,11.54505,0.073042,-0.244259,0.209089
2024-01-01 00:00:04.230,0.808833,0.278525,9.993366,0.028711,0.172878,-0.122771
2024-01-01 00:00:04.240,0.537275,-1.182824,9.076618,0.2172,-0.064125,0.025407
2024-01-01 00:00:04.250,1.139386,0.708585,10.488906,0.005776,-0.121504,-0.116368
2024-01-01 00:00:04.260,-0.803299,0.168211,8.725222,-0.244485,-0.143193,0.063146
2024-01-01 00:00:04.270,0.571138,0.922098,11.809123,-0.153106,0.017009,-0.002392
2024-01-01 00:00:04.280,0.881138,0.295836,11.61193,-0.494755,-0.047891,-0.023259
2024-01-01 00:00:04.290,-1.464151,0.733481,9.188523,0.506704,-0.054626,0.178271
2024-01-01 00:00:04.300,-0.985063,0.310719,8.972611,0.215689,0.269865,-0.098151
2024-01-01 00:00:04.310,-1.697661,0.896586,6.322647,-0.207518,0.307603,0.087977
2024-01-01 00:00:04.320,-0.224281,0.347819,7.836534,-0.070461,-0.322004,-0.115344
2024-01-01 00:00:04.330,0.597354,-0.065212,8.025826,-0.159219,0.065519,0.016903
2024-01-01 00:00:04.340,1.250712,1.513442,9.990074,0.385637,-0.155372,-0.179336
2024-01-01 00:00:04.350,0.061684,0.592099,9.375457,-0.354969,-0.04965,-0.099378
2024-01-01 00:00:04.360,1.355822,0.382114,8.018013,0.028619,0.061856,-0.012321
2024-01-01 00:00:04.370,-1.148934,-0.850019,9.435489,-0.027132,-0.042544,0.272197
2024-01-01 00:00:04.380,-1.418066,-0.858013,10.483109,0.20671,0.046092,0.015121
2024-01-01 00:00:04.390,-0.046243,0.194949,10.513082,-0.026002,0.134594,0.2482
2024-01-01 00:00:04.400,0.319734,0.096917,7.279639,-0.439552,0.058915,0.033048
2024-01-01 00:00:04.410,-0.027218,-0.409006,9.639153,-0.062779,-0.129367,-0.058063
2024-01-01 00:00:04.420,-1.721146,0.093894,7.96739,-0.243041,-0.12584,0.230903
2024-01-01 00:00:04.430,-0.074192,1.058026,11.011103,0.019895,-0.287941,0.065553
2024-01-01 00:00:04.440,-1.085971,0.463138,10.854483,0.358544,-0.170784,-0.096408
2024-01-01 00:00:04.450,0.557502,-0.759912,8.613828,-0.434856,0.392414,0.070586
2024-01-01 00:00:04.460,0.305193,-0.074265,8.789628,-0.200056,-0.158401,-0.043889
2024-01-01 00:00:04.470,-0.78245,-0.536108,9.195592,-0.138173,-0.238676,-0.298355
2024-01-01 00:00:04.480,-0.427794,-0.258208,6.809279,-0.095408,0.063986,0.140396
2024-01-01 00:00:04.490,-0.881795,-0.275468,10.25751,0.185031,-0.022073,0.16424
2024-01-01 00:00:04.500,-0.05218,-0.318112,9.446571,-0.043386,-0.039119,0.275691
2024-01-01 00:00:04.510,0.795156,-0.83592,11.102273,0.103951,0.281809,0.063322
2024-01-01 00:00:04.520,-0.820617,-0.085018,8.346919,-0.156443,0.109825,-0.037309
2024-01-01 00:00:04.530,0.419619,-0.373365,8.985328,0.057481,-0.105999,0.125248
2024-01-01 00:00:04.540,-0.441439,-1.951013,7.803308,0.194449,-0.084895,0.127473
2024-01-01 00:00:04.550,-0.660067,1.367279,8.472285,-0.183075,-0.100517,0.245742
2024-01-01 00:00:04.560,-0.089103,0.725121,8.2356,0.19534,0.174948,-0.006694
2024-01-01 00:00:04.570,-0.861839,-0.250616,11.136637,0.013093,-0.06163,-0.024837
2024-01-01 00:00:04.580,-0.460913,0.012533,8.879915,0.261365,-0.358631,-0.107332
2024-01-01 00:00:04.590,-0.997233,-0.780322,9.975402,-0.050355,-0.009664,0.080619
2024-01-01 00:00:04.600,1.635634,1.129351,9.302823,0.095311,-0.307405,-0.232239
2024-01-01 00:00:04.610,0.029357,1.263594,8.119072,-0.010152,0.436846,0.116413
2024-01-01 00:00:04.620,-0.582521,0.104358,9.585824,-0.024053,-0.193134,0.088175
2024-01-01 00:00:04.630,0.178138,0.681671,10.608006,0.064733,-0.032373,0.087761
2024-01-01 00:00:04.640,-0.093513,0.116741,8.201264,0.134202,0.051641,0.020734
2024-01-01 00:00:04.650,-0.183957,-0.890259,10.887738,-0.312391,-0.057732,0.229947
2024-01-01 00:00:04.660,0.511294,-0.274274,8.678172,0.358408,-0.058006,0.130799
2024-01-01 00:00:04.670,0.630625,0.087864,9.166665,-0.464916,0.084365,-0.091062
2024-01-01 00:00:04.680,-0.441642,-0.302729,10.51687,-0.171203,0.305243,-0.088377
2024-01-01 00:00:04.690,-0.479369,-0.145623,8.926303,-0.023567,0.153502,-0.131951
2024-01-01 00:00:04.700,-0.228981,-0.060872,9.86005,0.103089,0.295703,0.082692
2024-01-01 00:00:04.710,-1.916349,-0.053865,9.390832,0.394043,-0.209324,-0.150021
2024-01-01 00:00:04.720,-1.261397,0.034804,9.982318,-0.464573,0.063473,0.162509
2024-01-01 00:00:04.730,1.137923,-0.706363,6.638856,-0.126924,0.031049,0.198446
2024-01-01 00:00:04.740,1.369436,-0.477533,7.372864,-0.531708,0.070218,-0.131852
2024-01-01 00:00:04.750,-0.207323,-0.855533,10.630468,0.007905,0.275246,-0.027832
2024-01-01 00:00:04.760,0.479984,0.651225,11.191526,0.067921,-0.044158,0.002493
2024-01-01 00:00:04.770,0.259116,-1.402361,8.597232,0.397699,-0.081101,0.132597
2024-01-01 00:00:04.780,2.563168,0.768291,9.484954,0.030159,0.106796,0.241402
2024-01-01 00:00:04.790,0.932046,0.923309,10.202566,0.261006,-0.355641,-0.252824
2024-01-01 00:00:04.800,-0.106491,-0.201252,10.733366,0.145959,-0.04737,-0.047727
2024-01-01 00:00:04.810,-0.795487,-1.733689,7.109134,-0.108812,-0.02684,-0.039903
2024-01-01 00:00:04.820,-1.337367,-0.240633,8.629794,-0.35224,-0.184072,-0.2101
2024-01-01 00:00:04.830,0.169383,-0.042747,9.367004,0.068751,0.211412,-0.072767
2024-01-01 00:00:04.840,-0.629662,-0.673058,10.746583,-0.373026,-0.212448,0.064165
2024-01-01 00:00:04.850,-1.184026,-0.343135,13.137909,0.323802,-0.027175,-0.041802
2024-01-01 00:00:04.860,-0.538272,1.01911,9.506296,-0.040516,0.058631,-0.231693
2024-01-01 00:00:04.870,-0.900389,0.442841,7.935906,0.298794,0.27069,0.431112
2024-01-01 00:00:04.880,1.404545,-0.61576,10.345821,-0.120054,-0.002111,0.039927
2024-01-01 00:00:04.890,0.733965,-1.064001,11.569566,0.067213,0.187231,0.016754
2024-01-01 00:00:04.900,-0.006637,-0.217794,9.953875,0.052337,0.140119,-0.164689
2024-01-01 00:00:04.910,4.192053,-0.142162,16.742344,-0.011261,0.024692,0.039106
2024-01-01 00:00:04.920,3.024409,0.330469,19.226048,-0.108165,-0.217903,-0.024632
2024-01-01 00:00:04.930,2.242981,-0.356521,18.833843,0.098114,-0.286916,-0.283279
2024-01-01 00:00:04.940,4.228001,0.340659,16.58326,-0.231541,0.021301,-0.160538
2024-01-01 00:00:04.950,3.408643,1.288813,18.458059,-0.302359,-0.108539,0.119239
2024-01-01 00:00:04.960,-0.863507,0.543124,11.138358,0.310707,0.183852,0.291603
2024-01-01 00:00:04.970,-0.158457,-0.032027,11.384278,0.181792,0.149171,0.055075
2024-01-01 00:00:04.980,-0.728952,-0.121978,9.72149,0.016473,-0.036922,0.165462
2024-01-01 00:00:04.990,-1.151181,-0.237544,9.333038,0.416286,-0.231543,-0.023363
2024-01-01 00:00:05.000,0.771043,0.786307,11.444729,-0.066941,0.102147,-0.012982
2024-01-01 00:00:05.010,1.589589,-0.417791,8.198066,0.330676,-0.20359,0.163647
2024-01-01 00:00:05.020,-1.164308,0.030118,10.394188,0.043894,-0.151693,0.249417
2024-01-01 00:00:05.030,0.468672,0.034098,7.985125,-0.256188,-0.195883,0.195165
2024-01-01 00:00:05.040,-0.54166,-0.334188,11.229081,0.46201,-0.0277,-0.159954
2024-01-01 00:00:05.050,-0.405532,-0.914062,9.466283,0.247678,0.234038,-0.010044
2024-01-01 00:00:05.060,-0.493168,0.215101,11.499753,-0.030255,-0.001008,0.041629
2024-01-01 00:00:05.070,-0.719272,-0.040629,10.464562,0.181793,-0.088644,-0.038952
2024-01-01 00:00:05.080,0.040394,0.33316,8.180671,-0.100926,-0.305123,0.058179
2024-01-01 00:00:05.090,-0.691766,-0.355378,11.707604,0.207287,0.110425,0.123087
2024-01-01 00:00:05.100,0.225155,0.813067,11.876259,-0.59777,-0.156081,0.150421
2024-01-01 00:00:05.110,-0.041823,-0.583931,10.985206,-0.25495,0.023504,0.252881
2024-01-01 00:00:05.120,-0.198924,1.140219,8.795565,0.244815,-0.070844,-0.049416
2024-01-01 00:00:05.130,-0.755547,-1.163926,9.402389,-0.062414,0.167635,-0.204605
2024-01-01 00:00:05.140,-0.480162,0.289557,10.003709,0.051886,-0.031447,0.053735
2024-01-01 00:00:05.150,0.628863,0.316637,8.872658,-0.336696,-0.011785,0.282572
2024-01-01 00:00:05.160,0.417014,-0.529841,12.064206,0.461967,0.097149,-0.071546
2024-01-01 00:00:05.170,-0.813815,0.282646,10.002243,0.297632,0.421388,0.103027
2024-01-01 00:00:05.180,0.082694,0.852159,6.20914,-0.050171,0.177689,0.104362
2024-01-01 00:00:05.190,0.62553,-1.476401,10.262022,-0.101174,-0.017721,0.028716
2024-01-01 00:00:05.200,-1.38978,0.334828,9.346254,0.257401,0.00064,0.001039
2024-01-01 00:00:05.210,0.452347,-1.660518,9.710198,0.495618,-0.104972,-0.138514
2024-01-01 00:00:05.220,-0.551634,-0.643133,9.318999,0.23844,-0.189999,-0.342249
2024-01-01 00:00:05.230,0.475023,1.085025,10.884986,0.542951,-0.11055,-0.166778
2024-01-01 00:00:05.240,-0.635413,-0.387467,11.301424,-0.230588,-0.15443,-0.058546
2024-01-01 00:00:05.250,-1.502564,-0.781804,10.187027,-0.204847,0.130674,0.164613
2024-01-01 00:00:05.260,-1.354929,-0.131827,9.358037,-0.297235,-0.214239,-0.015469
2024-01-01 00:00:05.270,0.040031,1.377226,9.754939,0.11044,0.266642,-0.077854
2024-01-01 00:00:05.280,0.216219,-1.2199,9.836107,0.043901,0.150409,-0.133648
2024-01-01 00:00:05.290,-0.752844,-0.700172,8.741163,-0.037988,0.0041,0.098521
2024-01-01 00:00:05.300,0.531628,0.99729,10.581133,0.202315,6.4e-05,0.203754
2024-01-01 00:00:05.310,1.576785,1.23723,18.562776,0.308082,-0.111456,0.159515
2024-01-01 00:00:05.320,2.904989,-0.068885,20.001868,-0.381416,0.054017,0.090922
2024-01-01 00:00:05.330,1.951829,-0.825209,19.622126,-0.149243,0.217618,-0.221342
2024-01-01 00:00:05.340,2.417346,1.395832,17.036681,0.205036,-0.140631,-0.052751
2024-01-01 00:00:05.350,2.999459,1.061899,19.042637,-0.116935,-0.306678,0.292096
2024-01-01 00:00:05.360,-0.716294,0.452179,8.54333,-0.199552,0.140644,0.168293
2024-01-01 00:00:05.370,-0.320142,-0.54106,10.736982,0.254634,0.064873,-0.230625
2024-01-01 00:00:05.380,0.837739,-0.032654,9.12187,-0.322375,-0.22404,-0.008339
2024-01-01 00:00:05.390,-0.480262,-0.1068,8.447027,-0.075395,-0.146678,0.054465
2024-01-01 00:00:05.400,0.695714,0.220347,10.18302,0.082161,-0.171821,-0.114324
2024-01-01 00:00:05.410,-0.940481,0.966367,6.247477,-0.143455,-0.144906,-0.346381
2024-01-01 00:00:05.420,0.441062,0.585692,7.477701,0.195789,-0.064737,0.014824
2024-01-01 00:00:05.430,1.200106,-0.717532,9.573581,-0.142219,-0.053309,-0.118164
2024-01-01 00:00:05.440,-2.057644,0.916747,9.919812,0.352155,-0.130159,-0.117576
2024-01-01 00:00:05.450,-0.663415,0.208546,9.318067,-0.031437,-0.151633,-0.053202
2024-01-01 00:00:05.460,0.480413,0.457586,7.706191,0.167818,-0.045757,-0.020051
2024-01-01 00:00:05.470,-0.169035,0.976716,8.720568,0.186506,0.033538,-0.001362
2024-01-01 00:00:05.480,0.308979,-0.740312,10.331091,-0.156885,-0.063259,-0.132598
2024-01-01 00:00:05.490,-0.502818,-0.02386,10.584933,-0.513372,0.231733,-0.033031
2024-01-01 00:00:05.500,0.072086,-0.353949,9.788391,0.090189,0.101618,-0.263614
2024-01-01 00:00:05.510,-0.129601,-1.044194,11.350903,0.018072,-0.318169,0.046656
2024-01-01 00:00:05.520,0.972179,0.230909,10.339333,0.138957,0.104746,-0.428441
2024-01-01 00:00:05.530,0.211805,1.672697,8.814389,-0.056632,0.121109,-0.043424
2024-01-01 00:00:05.540,0.281054,-1.225492,9.436371,-0.107607,-0.086947,0.137878
2024-01-01 00:00:05.550,-0.342888,-0.021499,7.941382,0.502118,-0.29904,-0.158901
2024-01-01 00:00:05.560,-0.405932,0.426602,9.665959,-0.368089,0.001613,0.107465
2024-01-01 00:00:05.570,-0.360105,0.08197,11.291318,0.183488,-0.001542,0.17336
2024-01-01 00:00:05.580,0.328381,-0.075343,10.722806,-0.14365,-0.224329,-0.496185
2024-01-01 00:00:05.590,-0.35047,-0.865278,11.677476,-0.083945,-0.290244,-0.022704
2024-01-01 00:00:05.600,0.241238,0.155036,9.406557,-0.079276,-0.017511,-0.431366
2024-01-01 00:00:05.610,1.727771,-0.504005,11.603005,-0.200859,-0.046615,-0.017731
2024-01-01 00:00:05.620,0.725211,-1.458488,9.552519,0.142806,-0.083453,-0.001076
2024-01-01 00:00:05.630,-0.271415,0.795598,11.770151,0.347661,-0.016682,-0.372382
2024-01-01 00:00:05.640,1.000011,0.638285,9.780887,0.117503,-0.220555,0.288726
2024-01-01 00:00:05.650,-0.339723,0.034406,10.752032,0.025845,-0.086964,0.042902
2024-01-01 00:00:05.660,-1.696739,0.152564,11.77485,-0.24661,0.106665,-0.127354
2024-01-01 00:00:05.670,-0.839232,0.715496,9.552354,0.129206,-0.069994,0.219807
2024-01-01 00:00:05.680,-1.557434,0.14941,10.100894,0.539087,-0.334394,-0.269342
2024-01-01 00:00:05.690,-0.292635,0.602076,11.526766,-0.095174,-0.094538,-0.184376
2024-01-01 00:00:05.700,0.015333,-0.198123,9.63284,-0.093996,-0.214032,-0.344918
2024-01-01 00:00:05.710,1.395634,0.873781,8.050571,-0.140272,0.053427,0.270157
2024-01-01 00:00:05.720,0.272167,0.213643,12.664485,-0.122354,0.063767,0.049852
2024-01-01 00:00:05.730,-0.182401,0.129239,9.184274,-0.686325,-0.331755,0.09891
2024-01-01 00:00:05.740,0.69048,-0.845861,10.021463,0.101259,0.151803,0.04515
2024-01-01 00:00:05.750,-1.84077,0.191113,11.349801,-0.211388,-0.222437,0.086065
2024-01-01 00:00:05.760,0.196149,-0.554082,8.999486,-0.402566,0.311836,0.011712
2024-01-01 00:00:05.770,0.641745,-0.425096,8.46752,0.188297,-0.009755,0.040638
2024-01-01 00:00:05.780,-1.230923,-0.54304,10.147978,-0.270504,-0.249279,0.016141
2024-01-01 00:00:05.790,0.952175,-0.710112,7.421622,-0.084667,-0.228397,-0.091289
2024-01-01 00:00:05.800,0.281798,1.415098,9.426509,0.366611,0.069619,-0.006994
2024-01-01 00:00:05.810,-0.345727,0.886672,10.136392,-0.352304,-0.07826,0.041039
2024-01-01 00:00:05.820,0.526791,1.278965,9.450424,-0.38315,-0.019331,0.016582
2024-01-01 00:00:05.830,1.890352,-0.814448,7.754123,0.067327,0.322556,-0.221666
2024-01-01 00:00:05.840,0.151404,0.047455,11.933445,0.287372,-0.139849,-0.201748
2024-01-01 00:00:05.850,0.206644,-0.861476,9.947913,-0.393585,0.011993,0.162426
2024-01-01 00:00:05.860,-0.382418,-0.463333,11.716295,0.101922,0.283969,-0.046049
2024-01-01 00:00:05.870,-0.707495,-0.611473,9.463632,0.14525,0.054103,0.087709
2024-01-01 00:00:05.880,0.691255,0.825563,8.637824,-0.51479,-0.321321,-0.163818
2024-01-01 00:00:05.890,-0.71269,-0.263889,10.168549,0.199625,0.101078,-0.220972
2024-01-01 00:00:05.900,0.059579,0.711541,9.522572,0.219151,-0.232601,-0.126539
2024-01-01 00:00:05.910,-0.39765,0.402345,8.241222,-0.077946,0.281362,-0.033385
2024-01-01 00:00:05.920,0.398751,1.534223,11.767753,0.313087,-0.164574,-0.099771
2024-01-01 00:00:05.930,0.277774,-0.98531,8.981136,0.284114,0.593902,0.19409
2024-01-01 00:00:05.940,0.863752,0.838649,7.358765,0.025779,0.293475,0.026928
2024-01-01 00:00:05.950,-0.424589,0.76353,11.579117,-0.112861,-0.159323,0.277341
2024-01-01 00:00:05.960,-0.224671,-0.64827,9.138275,-0.243207,0.004003,0.060661
2024-01-01 00:00:05.970,-0.814821,0.670751,9.000379,-0.009391,0.150729,-0.361883
2024-01-01 00:00:05.980,-0.369874,0.223873,7.458504,0.14244,0.156732,0.158406
2024-01-01 00:00:05.990,0.314103,-0.151499,12.128934,-0.081044,0.088467,-0.226433
2024-01-01 00:00:06.000,0.630193,-0.548741,8.092412,-0.549375,0.250432,0.03458
2024-01-01 00:00:06.010,-0.767703,-0.478927,9.887855,0.317178,-0.024594,-0.116203
2024-01-01 00:00:06.020,0.723947,1.365175,11.02561,0.047556,-0.073344,0.321407
2024-01-01 00:00:06.030,1.128569,0.000455,10.371727,-0.094906,-0.069373,0.21594
2024-01-01 00:00:06.040,0.344185,0.520899,9.73054,0.21429,0.171675,-0.111273
2024-01-01 00:00:06.050,1.562433,-0.526739,7.543381,0.38116,0.073036,-0.019104
2024-01-01 00:00:06.060,-0.64418,-0.519382,8.731447,-0.700478,0.058257,0.03669
2024-01-01 00:00:06.070,-1.036175,0.720602,10.06015,0.108566,0.159047,0.129512
2024-01-01 00:00:06.080,-1.480785,-0.898818,8.761484,-0.356662,-0.41021,0.004373
2024-01-01 00:00:06.090,1.245457,-0.276532,10.080875,0.124778,0.062014,-0.153734
2024-01-01 00:00:06.100,0.544759,0.022662,10.718082,0.031982,0.043714,-0.107634
2024-01-01 00:00:06.110,-0.046274,0.074174,11.092054,0.158932,0.333762,-0.000672
2024-01-01 00:00:06.120,0.233074,-0.119276,8.176729,-0.124812,-0.305718,0.185169
2024-01-01 00:00:06.130,-0.93697,0.263616,12.735933,-0.46831,0.311437,0.064176
2024-01-01 00:00:06.140,2.036089,0.461442,10.832282,-0.112592,0.015082,-0.116012
2024-01-01 00:00:06.150,0.107577,0.489269,9.807717,0.101712,0.097798,0.097256
2024-01-01 00:00:06.160,0.091071,-0.656545,11.261263,0.253848,0.335184,-0.058048
2024-01-01 00:00:06.170,0.604201,-0.189247,12.960723,-0.292958,0.112152,0.133561
2024-01-01 00:00:06.180,0.40044,0.795712,7.893625,0.256765,0.080074,0.379052
2024-01-01 00:00:06.190,0.186383,0.595835,9.50995,-0.161968,0.048458,-0.053824
2024-01-01 00:00:06.200,-0.65807,-0.914324,6.641929,0.090612,-0.096696,0.120241
2024-01-01 00:00:06.210,0.392497,0.234086,10.066612,-0.127473,-0.005698,-0.111809
2024-01-01 00:00:06.220,1.566785,-1.317498,10.296705,0.045543,-0.143103,-0.01684
2024-01-01 00:00:06.230,1.120062,0.031259,9.757836,0.222969,-0.008913,0.004434
2024-01-01 00:00:06.240,1.326328,1.263913,8.938161,-0.306754,-0.467186,-0.029053
2024-01-01 00:00:06.250,-0.425587,-0.631297,7.080047,-0.169976,0.085808,0.369452
2024-01-01 00:00:06.260,-0.823846,-0.555659,10.307547,0.046241,-0.024347,-0.045989
2024-01-01 00:00:06.270,-0.104718,0.508844,11.748639,0.600396,-0.067241,0.088028
2024-01-01 00:00:06.280,0.046391,-1.027506,9.022763,-0.215797,0.043952,-0.289513
2024-01-01 00:00:06.290,0.910914,-0.421415,10.39616,0.510033,-0.286713,0.064799
2024-01-01 00:00:06.300,-1.408977,0.39723,7.721232,0.501106,0.385854,0.171308
2024-01-01 00:00:06.310,1.273351,-0.422434,10.419008,-0.024328,-0.020553,-0.07914
2024-01-01 00:00:06.320,-0.131542,-0.157156,9.286015,-0.074538,-0.029169,-0.376533
2024-01-01 00:00:06.330,-0.355378,0.495628,8.794459,-0.173016,-0.193079,-0.005798
2024-01-01 00:00:06.340,-0.842577,0.28075,8.797196,-0.017051,0.004789,0.002578
2024-01-01 00:00:06.350,-1.377668,0.177701,9.285709,-0.35168,0.277392,0.108611
2024-01-01 00:00:06.360,0.68529,-0.225855,10.319401,-0.01906,0.207183,0.301635
2024-01-01 00:00:06.370,0.061037,0.246461,8.062199,0.37422,0.170888,-0.057008
2024-01-01 00:00:06.380,-1.073892,-0.082406,9.281042,-0.152771,0.10928,-0.128443
2024-01-01 00:00:06.390,-1.078153,0.304899,9.75476,-0.060181,-0.071709,-0.175038
2024-01-01 00:00:06.400,-0.279541,-0.330957,8.34608,-0.425285,-0.290033,0.029712
2024-01-01 00:00:06.410,1.38946,-0.121591,12.203158,0.093516,-0.040208,0.071903
2024-01-01 00:00:06.420,-0.21611,-0.659312,8.673144,0.06612,-0.047174,-0.081848
2024-01-01 00:00:06.430,-1.251367,-0.023315,8.91831,0.015926,0.209759,0.116802
2024-01-01 00:00:06.440,-0.204581,-0.540127,8.506894,-0.054207,0.061878,0.069808
2024-01-01 00:00:06.450,-0.227042,-0.741955,12.205575,-0.073189,0.322462,0.006485
2024-01-01 00:00:06.460,-2.245158,0.172268,10.54647,0.125475,0.239498,-0.135362
2024-01-01 00:00:06.470,-0.0452,0.141685,8.562459,-0.007204,-0.091299,-0.07228
2024-01-01 00:00:06.480,-0.192253,0.521394,11.2835,0.078743,-0.359026,-0.364463
2024-01-01 00:00:06.490,0.579592,-0.28713,10.077331,0.053746,0.277115,0.035368
2024-01-01 00:00:06.500,1.539256,0.271763,10.152662,0.280857,0.271877,0.003951
2024-01-01 00:00:06.510,0.937865,0.366831,9.351156,0.169249,-0.273242,0.028272
2024-01-01 00:00:06.520,2.73615,0.296219,16.951778,0.048215,0.301848,0.075648
2024-01-01 00:00:06.530,2.038817,-0.549885,18.399904,0.379606,0.076423,0.057873
2024-01-01 00:00:06.540,5.102322,0.099476,17.223944,0.105067,0.032137,-0.016557
2024-01-01 00:00:06.550,3.009299,0.242517,20.369918,0.326241,0.322957,0.0073
2024-01-01 00:00:06.560,2.971596,0.004781,16.259304,0.151736,0.268937,-0.210647
2024-01-01 00:00:06.570,-0.020084,-1.389594,11.856161,-0.46048,0.130266,-0.087558
2024-01-01 00:00:06.580,0.164906,0.106886,9.661723,0.326209,0.094643,0.007571
2024-01-01 00:00:06.590,-0.12018,1.473546,10.208382,0.033794,0.123279,-0.110378
2024-01-01 00:00:06.600,-0.477574,-0.239786,10.919766,-0.012989,-0.080011,0.129023
2024-01-01 00:00:06.610,-0.45526,-0.484899,8.970508,0.070337,-0.01102,-0.098795
2024-01-01 00:00:06.620,-0.027267,0.24865,10.961179,-0.086246,-0.180463,0.032446
2024-01-01 00:00:06.630,-0.452401,0.208044,6.203552,0.056757,-0.066608,0.017485
2024-01-01 00:00:06.640,-0.593444,0.794362,8.850974,-0.147969,-0.073327,0.111942
2024-01-01 00:00:06.650,0.088603,-0.83774,8.579148,0.318568,-0.127061,0.135119
2024-01-01 00:00:06.660,-0.212269,0.487099,8.14033,-0.028397,0.027349,0.104105
2024-01-01 00:00:06.670,1.252074,0.393221,9.52368,-0.095646,-0.064796,-0.315901
2024-01-01 00:00:06.680,-2.206932,-0.09467,10.323819,-0.231231,0.100447,0.179122
2024-01-01 00:00:06.690,0.908679,0.225566,10.745943,0.067194,-0.324464,0.229096
2024-01-01 00:00:06.700,1.037366,0.685619,10.130848,0.046777,-0.022671,-0.072319
2024-01-01 00:00:06.710,-1.726097,0.580962,8.923296,0.097106,0.02631,0.035497
2024-01-01 00:00:06.720,-0.285287,-0.761251,10.30153,-0.256813,-0.062126,-0.133625
2024-01-01 00:00:06.730,-0.309225,0.546225,9.975549,-0.400295,-0.034479,-0.292257
2024-01-01 00:00:06.740,-1.171753,-0.043083,11.056827,0.156398,-0.317049,-0.110807
2024-01-01 00:00:06.750,-0.647532,0.048534,10.84488,0.37116,0.071295,-0.081021
2024-01-01 00:00:06.760,-0.924554,0.048749,9.850595,-0.256588,0.129521,-0.053228
2024-01-01 00:00:06.770,1.458765,-0.100062,8.614859,0.39736,0.098707,-0.143837
2024-01-01 00:00:06.780,0.778952,0.793677,8.94027,0.070978,0.207745,-0.110014
2024-01-01 00:00:06.790,1.05857,-0.055756,9.077681,-0.001766,0.040306,-0.001651
2024-01-01 00:00:06.800,0.600792,-0.745618,9.390065,-0.099387,0.095736,-0.115534
2024-01-01 00:00:06.810,-0.939936,-0.262091,10.167043,-0.34613,0.031218,0.081529
2024-01-01 00:00:06.820,-0.436663,0.119011,10.762612,0.246932,0.13751,0.102249
2024-01-01 00:00:06.830,0.407404,0.818657,9.74191,-0.193902,-0.315446,0.357058
2024-01-01 00:00:06.840,-1.017421,0.401661,9.831478,-0.194952,-0.178716,0.168852
2024-01-01 00:00:06.850,0.593571,-0.566456,10.000884,0.247982,0.31738,0.036465
2024-01-01 00:00:06.860,-0.200071,1.655136,9.122814,-0.470746,-0.492087,-0.09304
2024-01-01 00:00:06.870,-0.312038,0.17634,8.577378,-0.380899,-0.028036,0.044062
2024-01-01 00:00:06.880,0.591874,0.84941,7.471757,-0.004534,0.234455,0.048989
2024-01-01 00:00:06.890,0.369849,-0.101042,8.884061,0.073321,-0.018652,-0.076997
2024-01-01 00:00:06.900,-0.300504,0.355217,10.44023,0.121184,-0.081002,0.11756
2024-01-01 00:00:06.910,0.965142,0.559086,8.873722,-0.07545,0.025884,-0.209715
2024-01-01 00:00:06.920,2.060015,0.811318,17.633241,0.632592,-0.070624,-0.03666
2024-01-01 00:00:06.930,3.472766,0.704207,18.571286,-0.056973,0.00617,0.083379
2024-01-01 00:00:06.940,3.453757,0.580883,18.643558,-0.057697,-0.136676,-0.043138
2024-01-01 00:00:06.950,2.702303,-0.209848,16.512062,-0.199247,0.221735,-0.031013
2024-01-01 00:00:06.960,3.231506,-0.380783,19.278083,0.030977,0.284653,-0.020668
2024-01-01 00:00:06.970,-1.041552,0.221517,11.31163,0.15374,-0.026678,-0.12534
2024-01-01 00:00:06.980,0.769252,0.621463,8.30504,0.300895,-0.277298,0.176085
2024-01-01 00:00:06.990,-0.153931,-0.148332,8.712649,-0.372321,-0.104769,-0.152706
2024-01-01 00:00:07.000,-0.435167,0.709405,11.396533,-0.061499,-0.036798,0.047724
2024-01-01 00:00:07.010,0.8733,0.967443,9.614391,0.111676,0.101108,0.062047
2024-01-01 00:00:07.020,-0.586366,-0.61027,6.853256,0.146764,-0.201603,-0.142293
2024-01-01 00:00:07.030,-1.172544,-0.557389,7.945624,0.001637,-0.153832,0.010966
2024-01-01 00:00:07.040,-1.295894,-0.09349,9.47784,0.135606,0.102135,-0.136445
2024-01-01 00:00:07.050,0.504503,0.20487,8.260827,-0.202241,0.187782,0.208656
2024-01-01 00:00:07.060,-1.065957,-0.349362,9.25932,0.389476,-0.124319,-0.170817
2024-01-01 00:00:07.070,1.460866,0.900567,9.853152,0.248157,-0.266643,-0.098085
2024-01-01 00:00:07.080,-1.733206,0.282429,11.757723,-0.336232,0.656824,-0.183634
2024-01-01 00:00:07.090,1.4123,0.026272,9.423115,-0.268776,0.156661,-0.203655
2024-01-01 00:00:07.100,0.175672,-0.956316,11.238626,-0.26173,-0.053401,0.238682
2024-01-01 00:00:07.110,-0.080514,-0.876333,11.713109,0.169492,0.173806,0.081416
2024-01-01 00:00:07.120,-0.453645,0.187152,11.7205,-0.321182,-0.024891,0.021044
2024-01-01 00:00:07.130,0.332281,-1.420309,10.189293,-0.082756,0.173431,-0.098487
2024-01-01 00:00:07.140,-0.031331,0.674417,7.194899,0.113676,0.031879,0.136142
2024-01-01 00:00:07.150,0.918499,-0.10533,10.423819,-0.016541,0.018254,-0.123633
2024-01-01 00:00:07.160,0.095095,2.1599,11.206469,0.064722,-0.022716,0.119046
2024-01-01 00:00:07.170,0.125126,1.537072,9.702019,-0.266451,-0.289476,-0.130877
2024-01-01 00:00:07.180,-0.302707,-0.120845,12.133786,0.148714,0.387619,-0.096676
2024-01-01 00:00:07.190,-0.047407,-0.07082,10.955298,-0.153303,-0.188307,0.113742
2024-01-01 00:00:07.200,0.256245,0.663057,10.56694,-0.081155,-0.272005,0.129574
2024-01-01 00:00:07.210,-1.423715,1.134313,11.257059,0.059433,-0.042572,0.089621
2024-01-01 00:00:07.220,-1.122364,-1.090927,10.254049,0.02577,-0.192294,-0.157451
2024-01-01 00:00:07.230,0.618767,-1.189726,6.489576,0.005995,-0.010343,-0.067009
2024-01-01 00:00:07.240,0.142245,-0.414275,9.145147,-0.187657,0.137553,0.023535
2024-01-01 00:00:07.250,-0.153166,0.388103,11.404628,-0.074887,0.199061,-0.127392
2024-01-01 00:00:07.260,0.015346,0.330918,8.734288,0.000546,0.162946,0.205644
2024-01-01 00:00:07.270,0.289362,0.712468,9.512335,-0.343771,-0.061126,-0.360292
2024-01-01 00:00:07.280,-0.44935,-0.798999,8.418278,-0.115633,0.009918,-0.116811
2024-01-01 00:00:07.290,-0.647939,-1.542552,12.186185,0.09692,0.081576,-0.076435
2024-01-01 00:00:07.300,0.163041,0.571437,12.049748,-0.319359,-0.351557,-0.426592
2024-01-01 00:00:07.310,-0.814495,-0.551579,8.632687,0.289145,0.114117,-0.209434
2024-01-01 00:00:07.320,0.33987,-1.344313,10.006201,0.317403,-0.29146,0.093793
2024-01-01 00:00:07.330,-1.417401,0.096612,8.903582,-0.311288,0.408069,0.004543
2024-01-01 00:00:07.340,0.856772,0.528255,10.629106,0.339405,-0.080903,0.23597
2024-01-01 00:00:07.350,0.393437,-0.08129,10.488898,-0.035895,-0.036975,0.231784
2024-01-01 00:00:07.360,0.213145,-0.304927,10.891192,0.104629,-0.153941,0.064957
2024-01-01 00:00:07.370,0.81809,-0.106135,10.252115,-0.124163,-0.125994,0.046986
2024-01-01 00:00:07.380,1.386507,-0.246808,13.719961,0.230761,0.454819,0.00989
2024-01-01 00:00:07.390,0.844463,-0.897799,8.440806,0.101524,0.188074,-0.398262
2024-01-01 00:00:07.400,-1.532528,-0.475977,7.531476,-0.203538,-0.30984,-0.209184
2024-01-01 00:00:07.410,-1.065248,0.347172,9.286404,-0.2913,0.300843,0.015101
2024-01-01 00:00:07.420,-0.520161,0.214238,7.72144,-0.365076,0.238648,0.092404
2024-01-01 00:00:07.430,0.021721,0.111928,7.82204,0.046985,-0.056242,0.04345
2024-01-01 00:00:07.440,0.430951,-0.662769,8.476249,0.143118,0.061339,-0.13387
2024-01-01 00:00:07.450,-0.604182,-0.120881,8.581644,0.162741,-0.002989,0.140611
2024-01-01 00:00:07.460,0.155483,-1.449925,8.538449,-0.029495,0.394516,0.222367
2024-01-01 00:00:07.470,-0.628856,0.118865,10.500268,-0.289249,-0.159258,0.140698
2024-01-01 00:00:07.480,-0.509089,0.951619,9.135756,-0.170519,0.029202,0.14844
2024-01-01 00:00:07.490,-1.171045,-0.981772,9.570887,0.288087,-0.085629,-0.083884
2024-01-01 00:00:07.500,-0.768592,-0.390228,11.001118,-0.121157,-0.286608,0.16139
2024-01-01 00:00:07.510,-1.125277,0.219185,8.789258,0.035854,0.438328,0.021864
2024-01-01 00:00:07.520,-0.812414,0.834393,9.457625,-0.268913,-0.236313,0.076733
2024-01-01 00:00:07.530,0.877157,-0.298518,10.297192,0.084146,0.044026,0.054815
2024-01-01 00:00:07.540,-0.790375,-0.461039,7.223832,-0.114421,-0.34814,-0.018223
2024-01-01 00:00:07.550,2.191458,-1.311303,6.633306,0.261678,-0.079814,-0.129
2024-01-01 00:00:07.560,0.410687,0.06889,10.271028,0.193389,0.084394,-0.01232
2024-01-01 00:00:07.570,0.153876,1.360023,10.465363,-0.123926,-0.164947,0.148014
2024-01-01 00:00:07.580,-0.714583,0.184721,12.559541,-0.031666,0.11736,-0.066221
2024-01-01 00:00:07.590,0.583008,-0.014838,10.020582,-0.137779,-0.053808,0.134002
2024-01-01 00:00:07.600,-0.479218,0.214507,10.901893,-0.354858,0.232017,0.110561
2024-01-01 00:00:07.610,0.101573,-0.007387,9.54963,-0.214361,0.272352,-0.044841
2024-01-01 00:00:07.620,2.13127,-0.541468,10.205907,0.049554,-0.117349,0.20832
2024-01-01 00:00:07.630,-0.07997,0.548304,12.030786,0.081315,0.015347,-0.053332
2024-01-01 00:00:07.640,0.95677,0.150357,6.980842,0.037137,0.036691,0.226432
2024-01-01 00:00:07.650,-0.585394,0.01173,10.360937,-0.075433,0.12387,0.065119
2024-01-01 00:00:07.660,-0.029128,-0.649594,12.654602,0.233267,0.002876,-0.00238
2024-01-01 00:00:07.670,1.474192,0.868136,10.18567,0.015885,0.038042,-0.13317
2024-01-01 00:00:07.680,-0.52195,0.442692,12.008563,0.175813,-0.048681,-0.013239
2024-01-01 00:00:07.690,1.508863,-0.368245,8.971889,-0.443444,0.023048,-0.030564
2024-01-01 00:00:07.700,0.589203,0.667215,9.767313,-0.9806,0.259588,-0.188744
2024-01-01 00:00:07.710,-0.468254,-0.331382,9.854655,0.070947,0.129217,-0.032642
2024-01-01 00:00:07.720,0.526479,-0.520814,6.856169,-0.356191,0.140251,-0.12057
2024-01-01 00:00:07.730,0.809652,-0.505962,8.253987,-0.053113,0.144614,0.087899
2024-01-01 00:00:07.740,0.517657,-1.179532,8.348962,-0.075524,-0.030762,0.195942
2024-01-01 00:00:07.750,-1.307212,0.314047,10.904992,0.39685,0.063765,-0.184037
2024-01-01 00:00:07.760,-0.605342,-1.219542,10.971708,0.099999,-0.217035,0.256846
2024-01-01 00:00:07.770,-0.206059,-0.818144,10.241617,0.041465,0.253762,-0.019283
2024-01-01 00:00:07.780,-0.061966,-1.382342,10.907705,0.209248,-0.556592,-0.146253
2024-01-01 00:00:07.790,0.51671,-0.057322,9.591353,0.092124,-0.01743,0.113663
2024-01-01 00:00:07.800,0.147936,-0.100113,11.410973,-0.114419,0.228179,-0.066968
2024-01-01 00:00:07.810,-1.111674,-0.21758,9.821706,0.267869,-0.272774,-0.012261
2024-01-01 00:00:07.820,0.316515,-0.694357,9.887075,-0.277438,0.079956,-0.060642
2024-01-01 00:00:07.830,0.508313,-0.780708,9.456231,0.080812,-0.136153,-0.122511
2024-01-01 00:00:07.840,0.466026,0.30927,10.721688,-0.386892,-0.073761,0.1086
2024-01-01 00:00:07.850,0.89975,-0.366668,9.248963,0.050986,0.189188,-0.042945
2024-01-01 00:00:07.860,0.69424,0.210695,11.110607,0.048247,0.039611,-0.215498
2024-01-01 00:00:07.870,0.382267,-0.589576,8.301977,0.419114,-0.406871,0.082659
2024-01-01 00:00:07.880,-0.058413,0.120588,8.346244,-0.391243,-0.195285,-0.180837
2024-01-01 00:00:07.890,-1.38275,0.867983,10.725652,-0.150222,0.195067,-0.172989
2024-01-01 00:00:07.900,0.357657,0.390386,9.692059,0.205671,0.089789,0.178891
2024-01-01 00:00:07.910,0.1729,-0.274668,9.205417,0.083829,0.349627,-0.179451
2024-01-01 00:00:07.920,0.226089,0.171295,10.995557,0.045076,0.33653,-0.347467
2024-01-01 00:00:07.930,-1.062893,-0.160283,9.001128,-0.239034,-0.068449,0.093429
2024-01-01 00:00:07.940,-0.89998,0.005248,9.543332,-0.147705,0.500648,-0.04558
2024-01-01 00:00:07.950,0.87675,-0.216857,11.673772,0.31126,0.004896,-0.032648
2024-01-01 00:00:07.960,-0.03293,-0.109447,11.860138,-0.012877,-0.192534,-0.047175
2024-01-01 00:00:07.970,0.567349,0.141254,11.904434,0.09384,-0.126728,0.03475
2024-01-01 00:00:07.980,0.023575,-0.661577,9.434208,-0.028797,-0.451345,-0.112908
2024-01-01 00:00:07.990,0.024772,-0.676575,11.449296,-0.295771,0.321404,0.221417
2024-01-01 00:00:08.000,0.781121,-0.924769,8.545995,0.233453,0.318952,-0.221435
2024-01-01 00:00:08.010,-0.429607,-1.065781,8.602005,0.125808,-0.203101,0.066731
2024-01-01 00:00:08.020,0.080021,-0.81071,6.679193,0.576409,-0.045577,0.096318
2024-01-01 00:00:08.030,-0.384844,0.106202,12.03826,-0.253895,0.019122,-0.113948
2024-01-01 00:00:08.040,-0.361718,-0.594596,8.659179,0.205643,-0.192071,-0.15356
2024-01-01 00:00:08.050,-0.257386,0.342067,9.641459,-0.327886,-0.35102,0.152576
2024-01-01 00:00:08.060,0.184926,0.023119,8.597448,0.039337,-0.042072,-0.148629
2024-01-01 00:00:08.070,-0.398558,-1.311024,10.73596,0.244127,-0.064216,-0.091
2024-01-01 00:00:08.080,1.045417,0.436214,9.309656,-0.518034,-0.077682,0.133096
2024-01-01 00:00:08.090,-0.744761,0.539992,8.071984,-0.051233,0.044543,0.005211
2024-01-01 00:00:08.100,-0.155571,-0.661913,10.398295,-0.140802,0.285904,-0.269572
2024-01-01 00:00:08.110,-0.366076,0.279848,7.900272,-0.175489,-0.060619,0.262059
2024-01-01 00:00:08.120,1.204609,-0.570428,8.694576,0.096303,0.034089,-0.079502
2024-01-01 00:00:08.130,3.123632,0.065048,15.143624,0.280171,0.145374,-0.060414
2024-01-01 00:00:08.140,3.819011,-0.842156,16.053288,-0.03332,0.110829,0.038368
2024-01-01 00:00:08.150,1.723271,-1.194209,18.187801,0.051372,-0.122885,0.093762
2024-01-01 00:00:08.160,3.182319,-0.254956,15.333238,0.028577,0.019275,0.294166
2024-01-01 00:00:08.170,3.700618,-0.082403,15.977114,0.000451,0.109508,-0.24901
2024-01-01 00:00:08.180,0.068501,-0.264855,9.806845,-0.272336,-0.22567,0.123893
2024-01-01 00:00:08.190,0.887012,-0.788564,9.085916,0.277111,0.252708,0.111451
2024-01-01 00:00:08.200,-0.430643,-0.266333,12.463393,0.073799,0.286318,-0.020575
2024-01-01 00:00:08.210,1.173282,0.17935,12.25275,0.09872,-0.144556,0.118091
2024-01-01 00:00:08.220,1.913833,-0.029899,8.653927,-0.201627,0.038734,0.140141
2024-01-01 00:00:08.230,-0.302063,0.121546,10.552107,-0.114805,0.128456,-0.207294
2024-01-01 00:00:08.240,-0.370881,-0.446297,10.808044,-0.044034,-0.109123,0.262465
2024-01-01 00:00:08.250,1.209943,0.780364,9.014158,-0.383531,0.096323,-0.233814
2024-01-01 00:00:08.260,1.314994,-0.783331,7.817939,-0.422009,0.032651,-0.170297
2024-01-01 00:00:08.270,-0.435281,0.324715,9.793618,-0.150187,-0.293584,-0.039268
2024-01-01 00:00:08.280,-0.349806,0.787139,9.57977,0.13063,0.091832,0.288741
2024-01-01 00:00:08.290,-0.234586,0.320285,9.229562,-0.163284,-0.220028,-0.046238
2024-01-01 00:00:08.300,-1.119255,-0.134881,10.399166,-0.254701,0.187841,-0.00479
2024-01-01 00:00:08.310,-0.764778,-0.351846,8.810028,-0.203671,-0.134242,0.214812
2024-01-01 00:00:08.320,-0.835947,0.690034,8.275539,-0.113836,-0.032257,-0.045048
2024-01-01 00:00:08.330,-0.639191,-0.947701,9.955299,-0.088465,0.274456,-0.176766
2024-01-01 00:00:08.340,-0.028875,-0.646103,10.324112,0.54138,0.099276,-0.062585
2024-01-01 00:00:08.350,0.194984,-0.264773,8.242709,0.263655,-0.215895,0.205619
2024-01-01 00:00:08.360,1.290792,0.824277,11.046217,0.256194,-0.202983,0.01063
2024-01-01 00:00:08.370,-0.83113,0.252925,7.451719,0.292145,-0.119861,0.289599
2024-01-01 00:00:08.380,0.819448,-0.644718,9.039953,-0.249705,0.078929,0.11069
2024-01-01 00:00:08.390,-0.178146,-0.206665,9.466333,-0.305591,0.07166,-0.096721
2024-01-01 00:00:08.400,-0.041179,-0.409139,8.96255,-0.276718,-0.16862,0.007661
2024-01-01 00:00:08.410,0.561787,-0.472719,9.057339,0.333627,-0.233442,-0.127983
2024-01-01 00:00:08.420,-0.934666,0.65194,12.302271,-0.136798,0.056317,-0.100265
2024-01-01 00:00:08.430,0.318356,-0.913581,8.676622,-0.312839,-0.036372,0.671863
2024-01-01 00:00:08.440,0.138571,1.071448,13.061707,-0.107749,0.431443,0.152794
2024-01-01 00:00:08.450,0.409966,0.551601,10.392253,-0.059651,0.007321,0.129165
2024-01-01 00:00:08.460,0.240733,0.726514,9.932617,0.067103,0.362851,-0.093477
2024-01-01 00:00:08.470,2.044037,-0.308318,10.444352,0.062738,-0.234077,0.235438
2024-01-01 00:00:08.480,-0.530919,-0.099861,13.179864,-0.207045,-0.314643,0.164912
2024-01-01 00:00:08.490,-0.442055,-0.954479,8.486534,0.171414,-0.224017,0.282243
2024-01-01 00:00:08.500,-0.518764,-0.349425,8.317603,-0.159798,0.237826,0.274967
2024-01-01 00:00:08.510,-0.462435,0.328774,8.804518,-0.039069,0.35122,-0.221863
2024-01-01 00:00:08.520,-0.530625,0.863178,9.852815,0.171694,-0.156436,-0.166476
2024-01-01 00:00:08.530,3.949856,-0.737366,15.651273,-0.160455,-0.092113,-0.150568
2024-01-01 00:00:08.540,4.14257,-0.243427,17.979756,-0.142338,-0.233796,-0.141591
2024-01-01 00:00:08.550,2.484854,-0.100765,20.205805,0.147917,-0.362328,0.048518
2024-01-01 00:00:08.560,2.267064,-0.929596,18.151675,-0.214433,0.143682,-0.085021
2024-01-01 00:00:08.570,3.352453,0.393839,17.560143,-0.096198,0.044604,0.31089
2024-01-01 00:00:08.580,-0.459726,-0.482178,8.98661,0.138936,0.002098,0.285702
2024-01-01 00:00:08.590,0.526916,-0.13013,11.006818,0.513523,-0.280011,-0.000969
2024-01-01 00:00:08.600,0.168933,-0.300998,8.709991,0.151351,0.327991,0.293299
2024-01-01 00:00:08.610,-1.261857,-0.525699,12.269399,0.11816,-0.100671,0.22322
2024-01-01 00:00:08.620,1.288298,-0.004692,12.385235,0.1327,0.106725,-0.067606
2024-01-01 00:00:08.630,1.495068,-0.143596,10.151992,-0.268298,-0.290912,-0.301382
2024-01-01 00:00:08.640,-0.510147,-0.247657,9.794662,0.028899,-0.038105,-0.032695
2024-01-01 00:00:08.650,-0.322762,-0.485155,11.182839,-0.007442,0.058275,-0.096693
2024-01-01 00:00:08.660,0.237983,0.212803,11.268272,0.080396,0.065415,0.030976
2024-01-01 00:00:08.670,0.278435,1.101309,8.736419,0.029127,0.03093,0.013384
2024-01-01 00:00:08.680,0.548238,0.093165,9.108629,0.094925,0.098904,0.009453
2024-01-01 00:00:08.690,1.673495,0.663415,8.048633,-0.077867,-0.226104,0.078553
2024-01-01 00:00:08.700,-0.147309,-0.925888,10.354874,0.014652,0.039475,-0.181878
2024-01-01 00:00:08.710,-0.664582,0.105069,10.697948,-0.306957,0.022752,0.061704
2024-01-01 00:00:08.720,-1.148283,-0.730847,8.011899,-0.079977,0.046335,-0.065942
2024-01-01 00:00:08.730,-0.608499,-0.983632,9.203675,0.347708,0.014469,0.029997
2024-01-01 00:00:08.740,-0.027578,-0.492421,8.015458,0.079702,-0.254643,0.143611
2024-01-01 00:00:08.750,1.493969,0.793805,8.612799,-0.00523,-0.26356,-0.18366
2024-01-01 00:00:08.760,-0.430911,0.632711,10.543955,0.474031,-0.442854,-0.042194
2024-01-01 00:00:08.770,0.186303,0.161841,8.833002,-0.340209,0.163507,-0.01778
2024-01-01 00:00:08.780,-0.013672,-1.020779,9.4093,-0.277364,0.165532,-0.07714
2024-01-01 00:00:08.790,0.989337,-0.130723,7.642421,0.428178,0.16871,0.134974
2024-01-01 00:00:08.800,2.103671,0.200932,10.059071,0.01149,0.061358,-0.108058
2024-01-01 00:00:08.810,-0.441948,0.116907,9.751028,-0.060646,-0.426624,-0.08331
2024-01-01 00:00:08.820,-0.407458,-1.227967,8.839026,-0.299801,-0.205342,-0.106488
2024-01-01 00:00:08.830,0.869264,-0.592952,9.558233,0.111924,0.034083,0.163808
2024-01-01 00:00:08.840,0.567675,-0.042676,10.050153,0.136115,0.027104,-0.073867
2024-01-01 00:00:08.850,1.537384,0.35717,8.724596,-0.273624,-0.04455,0.069007
2024-01-01 00:00:08.860,0.48612,-1.462621,7.843618,-0.035069,0.073783,0.296356
2024-01-01 00:00:08.870,-0.299111,-0.107975,12.215025,-0.083879,0.00233,-0.011223
2024-01-01 00:00:08.880,0.49172,0.09527,8.966481,0.063994,0.024154,0.166809
2024-01-01 00:00:08.890,0.922996,0.565842,9.681116,-0.279813,-0.127813,0.250703
2024-01-01 00:00:08.900,0.683051,0.461443,11.156439,0.312987,0.196402,0.154079
2024-01-01 00:00:08.910,0.422306,0.387992,14.510702,0.228956,-0.086154,-0.00252
2024-01-01 00:00:08.920,0.888007,-0.53276,8.152344,-0.090794,-0.26613,0.096316
2024-01-01 00:00:08.930,0.973439,-1.270729,10.40917,-0.054105,-0.1542,-0.193107
2024-01-01 00:00:08.940,1.150647,-0.261773,8.86754,-0.034106,-0.069693,-0.117006
2024-01-01 00:00:08.950,0.540051,0.667087,9.092331,-0.194577,0.198801,-0.090701
2024-01-01 00:00:08.960,-0.139126,0.928041,8.850678,-0.110857,-0.008454,0.336092
2024-01-01 00:00:08.970,0.122139,0.473226,8.310628,-0.067568,-0.03723,-0.121888
2024-01-01 00:00:08.980,1.004419,0.285941,9.755,0.403217,-0.249733,-0.124122
2024-01-01 00:00:08.990,-0.680099,0.25284,7.845962,0.236655,0.157097,-0.156588
2024-01-01 00:00:09.000,0.306921,-0.370375,11.071148,0.233664,-0.13039,0.083972
2024-01-01 00:00:09.010,-0.327455,-0.08662,9.883264,0.092481,-0.020006,0.021393
2024-01-01 00:00:09.020,0.02393,1.1116,10.372683,-0.279332,0.296037,0.163014
2024-01-01 00:00:09.030,1.064311,-0.627744,9.189037,-0.010373,0.101753,0.100689
2024-01-01 00:00:09.040,0.15909,1.075443,9.320884,0.242622,-0.325651,-0.207058
2024-01-01 00:00:09.050,0.038658,-0.214471,10.193035,-0.314566,-0.353902,-0.121092
2024-01-01 00:00:09.060,-1.13208,0.882738,8.259485,0.159138,-0.012862,0.204799
2024-01-01 00:00:09.070,0.621256,-0.936939,9.333157,0.580652,-0.242548,-0.030495
2024-01-01 00:00:09.080,0.537366,0.390212,8.664995,0.265454,0.129709,0.178139
2024-01-01 00:00:09.090,1.80091,-0.490689,8.623762,0.353507,0.008453,-0.022452
2024-01-01 00:00:09.100,-0.256225,-0.942568,6.999695,0.054585,0.033077,-0.145148
2024-01-01 00:00:09.110,0.182443,0.145544,11.593983,0.241983,-0.141349,-0.045489
2024-01-01 00:00:09.120,0.207612,0.672308,8.89553,-0.179463,0.348277,-0.145207
2024-01-01 00:00:09.130,1.31323,-0.562731,11.359617,0.198966,0.568519,-0.084833
2024-01-01 00:00:09.140,-0.079334,-0.998345,11.233631,0.163597,-0.055717,0.030139
2024-01-01 00:00:09.150,0.232285,-0.061169,8.097048,0.072478,0.070608,0.076741
2024-01-01 00:00:09.160,0.506074,-0.058232,8.360236,0.329002,0.019483,-0.238529
2024-01-01 00:00:09.170,0.155352,0.365181,13.22059,-0.134696,-0.051937,-0.002605
2024-01-01 00:00:09.180,-0.371656,0.63243,12.142233,-0.046764,-0.166414,-0.087992
2024-01-01 00:00:09.190,0.16158,-0.039571,9.768017,0.023866,-0.216994,-0.097262
2024-01-01 00:00:09.200,0.893798,1.235765,10.152821,-0.257403,-0.227119,0.019903
2024-01-01 00:00:09.210,-0.854574,0.14934,8.969713,0.056733,0.081048,-0.082568
2024-01-01 00:00:09.220,0.110697,-0.23072,10.385894,-0.429733,-0.103935,0.207321
2024-01-01 00:00:09.230,-0.582851,-1.073304,8.854714,0.261739,-0.515659,0.178209
2024-01-01 00:00:09.240,0.994876,-0.174931,7.102905,0.011659,0.088972,0.177274
2024-01-01 00:00:09.250,-1.268053,-0.224034,8.049688,-0.130223,-0.007652,-0.074237
2024-01-01 00:00:09.260,-0.465302,0.639563,9.838096,-0.208593,0.269335,-0.144375
2024-01-01 00:00:09.270,0.314029,0.308014,8.303418,-0.058645,0.074624,0.012304
2024-01-01 00:00:09.280,1.303299,-0.78546,9.720386,0.172065,-0.295735,-0.022552
2024-01-01 00:00:09.290,-0.054737,0.114721,8.378551,0.136935,-0.445935,-0.091323
2024-01-01 00:00:09.300,-0.462204,0.44724,8.767905,-0.176384,-0.143894,-0.17636
2024-01-01 00:00:09.310,1.566063,1.017669,10.946416,-0.21151,-0.125021,-0.006228
2024-01-01 00:00:09.320,-1.205472,0.591078,10.139644,0.164225,0.188632,-0.06061
2024-01-01 00:00:09.330,-1.830506,0.506724,9.797127,-0.180587,-0.001774,0.103252
2024-01-01 00:00:09.340,0.366312,0.040017,10.98078,0.014977,0.226738,0.099766
2024-01-01 00:00:09.350,-0.41796,0.258616,10.450171,0.030939,-0.264967,0.16512
2024-01-01 00:00:09.360,-0.850176,0.83217,11.736822,0.078016,0.193053,-0.188894
2024-01-01 00:00:09.370,0.589707,-0.88763,9.197467,0.214568,0.144198,0.060159
2024-01-01 00:00:09.380,0.202964,-0.232727,9.237726,-0.315741,-0.403647,-0.10912
2024-01-01 00:00:09.390,-0.469595,-0.514531,8.076922,-0.47779,0.264524,-0.183062
2024-01-01 00:00:09.400,-1.065853,0.252516,9.238598,-0.141862,0.018692,-0.06429
2024-01-01 00:00:09.410,0.726321,0.819328,11.095073,0.450382,0.078409,0.160306
2024-01-01 00:00:09.420,0.541292,-0.397585,11.541583,0.505544,-0.172979,-0.055848
2024-01-01 00:00:09.430,-0.082564,-1.591943,11.089126,0.457794,0.255049,0.234818
2024-01-01 00:00:09.440,1.537325,-0.274539,7.420136,-0.048245,-0.23717,0.082332
2024-01-01 00:00:09.450,-0.890846,0.608374,11.252749,-0.445529,0.166418,-0.059114
2024-01-01 00:00:09.460,-1.27,0.358062,7.361093,-0.58576,0.164121,0.174007
2024-01-01 00:00:09.470,-0.576013,0.285172,11.006292,-0.15351,-0.194833,0.06681
2024-01-01 00:00:09.480,-0.03795,-0.186476,9.320111,-0.049518,0.396675,-0.139884
2024-01-01 00:00:09.490,0.20258,-0.851834,10.745774,0.325156,0.046306,0.27882
2024-01-01 00:00:09.500,-0.200829,0.343186,8.035179,0.216951,0.130779,0.038922
2024-01-01 00:00:09.510,0.293086,-0.555632,11.369995,0.056851,-0.305424,0.002819
2024-01-01 00:00:09.520,-1.041907,1.454608,7.858654,-0.222461,0.423546,-0.12833
2024-01-01 00:00:09.530,1.201934,0.379958,8.919618,-0.240195,-0.244911,0.176931
2024-01-01 00:00:09.540,-0.068391,-0.386712,8.480538,0.063532,0.204977,0.077591
2024-01-01 00:00:09.550,0.930149,-0.407183,7.473293,0.174263,-0.198954,0.094386
2024-01-01 00:00:09.560,0.285319,-0.061901,9.935911,0.09797,-0.123798,-0.07613
2024-01-01 00:00:09.570,0.380247,-0.159508,12.215711,-0.258649,0.157751,0.125115
2024-01-01 00:00:09.580,0.474331,0.743811,13.362318,0.162667,0.205511,0.136772
2024-01-01 00:00:09.590,0.372717,0.124153,9.939412,0.106478,-0.254257,-0.100317
2024-01-01 00:00:09.600,0.535067,-0.487267,11.297419,-0.267667,0.218094,-0.212549
2024-01-01 00:00:09.610,1.106519,1.259033,10.11915,-0.19608,0.208996,0.087206
2024-01-01 00:00:09.620,0.163604,0.032839,10.474512,0.172124,-0.187591,-0.236002
2024-01-01 00:00:09.630,0.590246,0.512047,9.354258,-0.058627,0.31973,0.022802
2024-01-01 00:00:09.640,-0.074705,-0.405079,10.069842,0.397287,-0.291372,-0.067087
2024-01-01 00:00:09.650,1.198898,0.241835,10.525922,0.125282,-0.124955,0.1828
2024-01-01 00:00:09.660,-0.563097,0.207199,9.039492,-0.121658,0.095801,-0.058927
2024-01-01 00:00:09.670,1.499283,-1.258506,9.706778,-0.002551,-0.170713,0.166091
2024-01-01 00:00:09.680,-0.033431,1.342173,9.732171,0.015846,0.052764,-0.077131
2024-01-01 00:00:09.690,-1.19112,0.859569,10.910769,-0.182098,0.048215,0.149999
2024-01-01 00:00:09.700,0.106647,-0.264532,8.390045,-0.228147,-0.037415,0.309051
2024-01-01 00:00:09.710,-0.566976,-0.734112,9.741346,0.175347,0.16648,-0.160207
2024-01-01 00:00:09.720,0.699836,0.231476,12.356791,0.211318,-0.045672,0.043805
2024-01-01 00:00:09.730,-0.543309,0.057741,11.360528,0.150945,0.046308,0.412317
2024-01-01 00:00:09.740,2.588552,0.236876,19.747106,0.37883,0.229294,0.009988
2024-01-01 00:00:09.750,1.386957,0.127591,17.982543,-0.135443,0.158137,0.009268
2024-01-01 00:00:09.760,2.583455,0.337156,18.377569,0.418568,0.157203,0.118275
2024-01-01 00:00:09.770,0.94212,0.963906,19.284979,-0.22523,-0.229836,0.006162
2024-01-01 00:00:09.780,1.641401,0.378357,20.02826,-0.253171,0.104959,-0.256084
2024-01-01 00:00:09.790,0.633045,-0.699071,7.210465,-0.43999,-0.1757,0.169843
2024-01-01 00:00:09.800,0.654179,0.907467,8.057832,-0.111449,-0.256283,-0.300442
2024-01-01 00:00:09.810,0.354193,1.092649,11.55418,-0.125931,-0.014341,-0.062519
2024-01-01 00:00:09.820,-0.805008,2.09927,9.441183,0.131484,-0.180859,0.181114
2024-01-01 00:00:09.830,-0.03972,-0.748247,8.915268,0.060973,0.158124,-0.053481
2024-01-01 00:00:09.840,-0.002999,0.161759,8.139458,-0.298243,0.162907,-0.104054
2024-01-01 00:00:09.850,-0.964339,-1.386678,9.070718,-0.098182,-0.380525,0.13189
2024-01-01 00:00:09.860,1.251579,0.368397,7.942044,-0.092866,-0.165661,-0.127667
2024-01-01 00:00:09.870,0.730404,-0.365101,12.595338,-0.443996,-0.291957,-0.183334
2024-01-01 00:00:09.880,-0.183953,1.281015,9.780115,-0.245237,-0.092526,0.041177
2024-01-01 00:00:09.890,0.022382,-0.515894,9.73281,-0.192703,0.091035,-0.027438
2024-01-01 00:00:09.900,0.173479,-1.124996,10.593318,0.358406,-0.048458,-0.186551
2024-01-01 00:00:09.910,-1.699744,-0.313862,11.091844,0.047863,-0.117952,0.095543
2024-01-01 00:00:09.920,-0.205775,-1.315675,11.069923,0.165542,0.260035,0.069673
2024-01-01 00:00:09.930,-0.567752,0.500232,11.240064,-0.374659,-0.460971,-0.053963
2024-01-01 00:00:09.940,-0.833849,-1.375345,8.969714,0.298554,0.247374,-0.0437
2024-01-01 00:00:09.950,-0.234016,0.018953,9.413241,0.325276,-0.108858,0.070559
2024-01-01 00:00:09.960,1.496574,-1.383823,10.83435,-0.499586,-0.015622,0.178554
2024-01-01 00:00:09.970,0.533502,-0.213318,9.107518,-0.176329,-0.105473,-0.042419
2024-01-01 00:00:09.980,-0.475507,1.09449,9.803198,0.123941,0.308578,0.098203
2024-01-01 00:00:09.990,0.476675,0.240191,10.341153,0.161097,-0.246196,0.08478
2024-01-01 00:00:10.000,1.164963,-0.575087,10.855867,-0.169624,0.002347,0.131896
2024-01-01 00:00:10.010,0.769758,-0.020782,7.442129,-0.076375,0.105488,0.005896
2024-01-01 00:00:10.020,0.049642,0.011999,10.762041,-0.149345,-0.322201,-0.136849
2024-01-01 00:00:10.030,-0.538575,0.314772,9.49868,0.027605,-0.18398,-0.069375
2024-01-01 00:00:10.040,0.581271,-0.910328,10.752334,0.299295,-0.029636,0.051428
2024-01-01 00:00:10.050,0.327577,0.39465,10.844873,-0.192761,-0.177333,0.27277
2024-01-01 00:00:10.060,0.745248,-1.801125,11.951743,0.250205,-0.163118,-0.072603
2024-01-01 00:00:10.070,0.528781,-0.419503,11.6128,-0.195418,-0.069973,0.120718
2024-01-01 00:00:10.080,0.873753,-0.32519,11.603633,-0.211907,0.129916,-0.049208
2024-01-01 00:00:10.090,-0.445583,0.421796,11.732969,0.204649,-0.068544,0.01657
2024-01-01 00:00:10.100,1.096731,0.015072,10.198117,0.230484,0.215685,0.22731
2024-01-01 00:00:10.110,0.164502,-0.936105,9.852871,0.212852,-0.199552,0.114644
2024-01-01 00:00:10.120,1.727655,-0.656005,10.972592,-0.328949,-0.250384,-0.186195
2024-01-01 00:00:10.130,-0.573749,0.132321,10.785132,-0.116488,0.385269,-0.085871
2024-01-01 00:00:10.140,4.40519,-0.052659,17.538324,0.205747,-0.131592,0.188433
2024-01-01 00:00:10.150,3.124761,-0.385697,18.489225,0.010385,-0.262182,0.021282
2024-01-01 00:00:10.160,2.417695,-0.320235,17.903252,-0.268423,-0.348411,-0.172326
2024-01-01 00:00:10.170,2.557165,0.463648,16.812561,0.114579,0.215021,-0.122843
2024-01-01 00:00:10.180,2.693311,-0.344783,19.668894,-0.178702,-0.068261,0.105524
2024-01-01 00:00:10.190,0.353118,-0.058669,9.883525,0.448631,-0.050742,0.149162
2024-01-01 00:00:10.200,0.435261,1.445178,12.538879,0.38621,-0.03184,0.002678
2024-01-01 00:00:10.210,-0.477605,-0.948173,7.644844,0.151024,0.202589,0.371297
2024-01-01 00:00:10.220,-0.020275,-1.233327,9.068371,0.340252,-0.035906,0.123623
2024-01-01 00:00:10.230,1.78344,0.521871,9.853475,0.016198,0.468811,-0.036522
2024-01-01 00:00:10.240,1.43818,-0.451976,11.324992,0.191359,0.026752,-0.122356
2024-01-01 00:00:10.250,0.363239,-0.211946,10.342093,0.36943,0.212357,-0.146233
2024-01-01 00:00:10.260,0.031638,-0.52025,10.22355,0.061375,0.161048,0.050313
2024-01-01 00:00:10.270,0.099926,-0.173027,8.308485,-0.063797,-0.007289,-0.073317
2024-01-01 00:00:10.280,0.510754,1.064626,8.268954,-0.426155,-0.117394,0.251062
2024-01-01 00:00:10.290,-0.851475,0.534218,10.239576,-0.020783,0.066393,0.219947
2024-01-01 00:00:10.300,-0.214266,0.574241,7.993011,0.205856,0.10202,0.09496
2024-01-01 00:00:10.310,-1.389096,-0.943207,9.101539,0.236408,-0.114517,-0.176849
2024-01-01 00:00:10.320,0.332353,-0.766668,10.477222,0.126091,0.033268,-0.100833
2024-01-01 00:00:10.330,0.538791,-1.890826,8.501544,-0.135325,0.247241,0.188352
2024-01-01 00:00:10.340,-0.402253,-0.539048,11.948334,-0.494205,0.41399,-0.08446
2024-01-01 00:00:10.350,1.310344,0.637164,11.440283,-0.123804,0.170874,0.168321
2024-01-01 00:00:10.360,-1.02045,0.344286,7.716869,-0.076086,0.372552,0.071191
2024-01-01 00:00:10.370,-1.219092,-0.147528,8.568082,-0.078232,-0.125875,0.007758
2024-01-01 00:00:10.380,0.186856,-0.014852,6.765345,0.154639,0.140376,-0.105425
2024-01-01 00:00:10.390,0.871709,-0.458798,8.767588,0.496419,0.267704,-0.014137
2024-01-01 00:00:10.400,1.40187,0.136369,10.830829,0.030882,-0.179267,0.028447
2024-01-01 00:00:10.410,-0.382021,0.510075,9.258692,-0.054183,-0.097118,0.154881
2024-01-01 00:00:10.420,0.898002,-1.076181,10.423782,-0.064805,0.347581,-0.13286
2024-01-01 00:00:10.430,-0.032058,0.199565,7.782251,0.031096,-0.19502,-0.039423
2024-01-01 00:00:10.440,-0.143712,0.621002,10.872903,-0.207073,-0.268226,0.006723
2024-01-01 00:00:10.450,0.735647,-0.276457,9.070595,0.03005,0.305596,0.099402
2024-01-01 00:00:10.460,0.543059,0.466667,9.82621,0.112703,0.239353,-0.13627
2024-01-01 00:00:10.470,-1.312346,1.87456,9.686291,0.052422,0.086424,-0.197485
2024-01-01 00:00:10.480,1.22922,-0.069492,8.116297,0.114385,-0.009142,0.101095
2024-01-01 00:00:10.490,1.148926,0.261942,8.274092,0.108437,-0.087705,-0.227692
2024-01-01 00:00:10.500,-0.520781,-0.491546,11.099102,-0.442974,0.05639,0.192747
2024-01-01 00:00:10.510,0.329506,0.120713,10.341458,0.159218,0.315961,-0.023389
2024-01-01 00:00:10.520,0.41128,0.306541,11.208665,-0.167754,0.047713,-0.23213
2024-01-01 00:00:10.530,0.217011,0.129765,10.242445,-0.27396,0.433392,-0.072063
2024-01-01 00:00:10.540,-0.458129,-0.679117,10.000464,-0.276113,-0.179588,0.056869
2024-01-01 00:00:10.550,-0.559126,0.137437,7.510954,0.108385,-0.003936,-0.079905
2024-01-01 00:00:10.560,-0.021274,0.973822,9.449872,-0.055644,-0.074612,0.003004
2024-01-01 00:00:10.570,0.976297,0.298791,9.773524,-0.420492,-0.217028,0.111012
2024-01-01 00:00:10.580,0.452547,0.640683,12.411539,0.119509,-0.030617,-0.030329
2024-01-01 00:00:10.590,-0.308536,-0.15785,10.725026,-0.359902,0.083466,-0.140559
2024-01-01 00:00:10.600,0.642439,0.499434,11.856033,0.034955,0.104846,-0.044848
2024-01-01 00:00:10.610,-2.371412,0.185992,10.60592,0.059625,0.43409,0.212226
2024-01-01 00:00:10.620,0.956347,-0.633307,8.862544,0.221394,0.092893,0.25276
2024-01-01 00:00:10.630,-1.448312,0.212135,9.966009,0.445421,0.230027,-0.302989
2024-01-01 00:00:10.640,-0.301732,-0.66047,10.12465,-0.341169,0.013219,0.163654
2024-01-01 00:00:10.650,-0.932125,-0.421498,8.559045,-0.013118,0.335611,0.037522
2024-01-01 00:00:10.660,-1.077822,0.126093,9.297996,-0.069084,0.47969,0.138597
2024-01-01 00:00:10.670,0.966388,0.197965,9.535918,0.108437,0.106217,-0.082573
2024-01-01 00:00:10.680,-0.389361,-0.792029,11.948686,0.053917,-0.198532,-0.26524
2024-01-01 00:00:10.690,0.288464,0.701955,7.038454,-0.088137,-0.109761,0.087673
2024-01-01 00:00:10.700,-0.039061,0.380956,11.41615,-0.110226,0.056387,-0.141147
2024-01-01 00:00:10.710,0.397136,-0.469349,8.562189,-0.279113,0.0913,-0.208244
2024-01-01 00:00:10.720,0.063954,-1.024031,7.982391,0.246965,0.139685,-0.19776
2024-01-01 00:00:10.730,-1.068091,-0.096506,11.381683,0.114801,0.09204,0.090137
2024-01-01 00:00:10.740,0.829392,-0.296999,10.784888,0.229442,0.001397,0.020918
2024-01-01 00:00:10.750,-0.411052,0.075352,11.481019,-0.077599,-0.12724,0.11737
2024-01-01 00:00:10.760,-1.295854,-0.241836,10.876535,-0.164209,0.080228,0.100361
2024-01-01 00:00:10.770,-0.356406,-1.336966,12.553714,-0.269579,0.370997,-0.06314
2024-01-01 00:00:10.780,1.249383,-0.258639,10.55422,0.089729,0.203986,-0.010571
2024-01-01 00:00:10.790,0.70781,-0.203542,9.601572,-0.259948,0.106941,-0.076716
2024-01-01 00:00:10.800,-0.290253,0.422018,10.266778,0.462166,0.205913,-0.031549
2024-01-01 00:00:10.810,-0.290757,-0.465001,11.466301,-0.326911,-0.074213,-0.145088
2024-01-01 00:00:10.820,-0.267761,1.117997,8.771872,0.068415,-0.101653,0.058573
2024-01-01 00:00:10.830,1.728893,-1.273153,8.941684,0.391714,-0.149557,0.161268
2024-01-01 00:00:10.840,0.317961,0.873238,9.398465,0.149772,-0.025057,-0.122492
2024-01-01 00:00:10.850,0.35801,-0.149396,7.006696,0.043918,-0.084401,0.19219
2024-01-01 00:00:10.860,0.857711,0.572484,9.99392,-0.242121,0.241655,0.017028
2024-01-01 00:00:10.870,0.198792,0.053148,7.297677,-0.345442,-0.095065,0.036162
2024-01-01 00:00:10.880,-0.215653,0.758944,9.880675,0.192513,-0.160544,-0.254914
2024-01-01 00:00:10.890,-0.163461,-0.257983,10.962566,0.376537,0.388515,-0.271089
2024-01-01 00:00:10.900,-0.059608,-0.731681,9.174801,-0.109712,-0.090275,0.021617
2024-01-01 00:00:10.910,-0.030988,0.946056,12.043918,-0.284765,0.030706,0.11846
2024-01-01 00:00:10.920,0.605752,-0.075578,7.864613,-0.614542,0.090265,-0.100707
2024-01-01 00:00:10.930,0.043245,0.147558,11.396759,-0.245191,-0.227339,0.250514
2024-01-01 00:00:10.940,0.609923,0.822345,10.709283,-0.028414,0.247097,0.11024
2024-01-01 00:00:10.950,-0.067197,-0.687282,7.524244,0.399781,0.127424,-0.136251
2024-01-01 00:00:10.960,0.065464,0.396597,13.420778,0.168283,0.311677,0.004627
2024-01-01 00:00:10.970,-1.663502,-0.39287,9.725091,0.076271,-0.135844,0.371539
2024-01-01 00:00:10.980,0.762843,-0.088025,8.641191,-0.10003,0.019825,-0.186385
2024-01-01 00:00:10.990,0.288452,0.048138,7.93576,-0.145791,0.007871,0.07924
2024-01-01 00:00:11.000,0.830843,-0.999148,9.516936,0.351412,0.052778,-0.048412
2024-01-01 00:00:11.010,-2.411133,-0.518705,9.640294,0.050185,-0.290923,0.106034
2024-01-01 00:00:11.020,1.738572,0.899815,9.946724,-0.52565,0.022167,0.190091
2024-01-01 00:00:11.030,-0.116208,0.590203,9.413336,-0.168385,-0.285293,-0.057936
2024-01-01 00:00:11.040,0.922562,-0.041718,10.653456,-0.214554,0.071667,0.167837
2024-01-01 00:00:11.050,-0.865722,0.16192,9.293677,-0.136566,-0.42573,0.333181
2024-01-01 00:00:11.060,0.510134,-0.195966,7.232628,0.140728,-0.370317,0.009941
2024-01-01 00:00:11.070,-0.876968,0.903485,9.61105,-0.026861,0.16371,0.117733
2024-01-01 00:00:11.080,-0.519288,-0.133435,6.65652,-0.019216,-0.109368,-0.088566
2024-01-01 00:00:11.090,1.593431,0.154407,10.281222,0.328368,-0.197572,0.002889
2024-01-01 00:00:11.100,-0.158743,0.763256,8.505572,-0.174115,0.254169,-0.026501
2024-01-01 00:00:11.110,0.181013,-0.517729,10.027596,0.46605,0.065525,0.11954
2024-01-01 00:00:11.120,0.724331,1.038154,11.560348,-0.167827,0.174418,0.180701
2024-01-01 00:00:11.130,0.412655,-1.019287,8.546267,0.0223,-0.033248,-0.016448
2024-01-01 00:00:11.140,0.125224,1.085342,11.223593,-0.070301,0.535926,0.230043
2024-01-01 00:00:11.150,0.30383,-0.248202,9.232725,0.030855,-0.120903,0.229507
2024-01-01 00:00:11.160,2.000843,-0.161637,12.145255,0.111148,0.348899,0.127028
2024-01-01 00:00:11.170,-0.047968,-1.258747,9.323617,0.108459,-0.012273,-0.077404
2024-01-01 00:00:11.180,0.167415,-0.302893,8.690463,-0.188279,-0.330902,-0.091774
2024-01-01 00:00:11.190,0.87467,-0.692511,10.725402,-0.280729,0.09657,-0.121857
2024-01-01 00:00:11.200,0.92035,-0.404692,9.229528,0.625793,0.062953,0.142375
2024-01-01 00:00:11.210,0.988203,-0.091449,8.689189,-0.120996,-0.210264,-0.181765
2024-01-01 00:00:11.220,0.531743,0.637889,9.173517,0.174803,-0.184444,0.101526
2024-01-01 00:00:11.230,-0.951552,0.138264,9.750584,-0.40191,-0.00494,-0.162166
2024-01-01 00:00:11.240,1.359832,0.204913,11.597784,-0.069903,0.06995,0.123532
2024-01-01 00:00:11.250,-0.954333,-0.729616,7.233795,-0.0318,-0.494133,0.002583
2024-01-01 00:00:11.260,0.251944,-0.586582,9.840743,0.118204,0.210624,0.200046
2024-01-01 00:00:11.270,-0.627935,1.197951,10.642372,-0.680614,-0.0989,0.171218
2024-01-01 00:00:11.280,-0.053395,-0.489644,10.067674,0.041535,-0.266349,0.21526
2024-01-01 00:00:11.290,0.273695,1.103035,11.55474,-0.287435,0.188213,0.219123
2024-01-01 00:00:11.300,0.26753,-0.161879,9.710972,0.081086,-0.004724,0.021545
2024-01-01 00:00:11.310,0.351249,0.001524,9.564177,-0.259082,0.243233,-0.173819
2024-01-01 00:00:11.320,1.343415,0.712863,10.598983,-0.213871,0.08759,-0.157878
2024-01-01 00:00:11.330,0.377567,0.84708,9.942286,-0.068407,-0.000303,-0.313027
2024-01-01 00:00:11.340,-0.20326,-0.073801,9.289976,-0.263082,-0.030546,-0.16255
2024-01-01 00:00:11.350,3.762603,-0.25857,18.637504,-0.118884,0.096543,0.010324
2024-01-01 00:00:11.360,3.950234,-0.037243,17.080832,-0.298344,-0.082706,-0.083948
2024-01-01 00:00:11.370,1.938016,0.22508,17.135912,-0.458293,-0.170515,-0.02702
2024-01-01 00:00:11.380,3.457336,0.593608,17.246712,0.254489,0.121982,0.073907
2024-01-01 00:00:11.390,3.543726,0.002817,19.752288,-0.324012,-0.028898,-0.04561
2024-01-01 00:00:11.400,-0.247722,0.412178,5.519606,-0.04467,0.006714,-0.168274
2024-01-01 00:00:11.410,1.145276,1.091148,10.336938,0.188223,0.217876,-0.007985
2024-01-01 00:00:11.420,-0.124921,0.253952,9.85565,-0.153736,-0.022775,-0.134774
2024-01-01 00:00:11.430,0.104542,0.207561,7.571081,-0.206291,0.003007,-0.040618
2024-01-01 00:00:11.440,-0.144082,-1.011595,10.222556,0.05656,-0.11993,0.201417
2024-01-01 00:00:11.450,0.01297,-1.752066,10.443702,0.279483,0.086148,-0.040576
2024-01-01 00:00:11.460,-0.912649,0.258658,10.595399,-0.292329,0.069966,0.265644
2024-01-01 00:00:11.470,-1.198842,-0.063153,6.277765,-0.037537,0.180155,0.214745
2024-01-01 00:00:11.480,1.327425,-0.342845,11.630031,-0.433124,-0.115826,-0.086896
2024-01-01 00:00:11.490,-0.705095,0.162191,8.827335,-0.0983,-0.091563,-0.166669
2024-01-01 00:00:11.500,-0.825334,-0.040229,10.724508,0.008551,0.158427,-0.007883
2024-01-01 00:00:11.510,-1.792697,0.751102,10.79711,-0.213656,0.050443,0.172999
2024-01-01 00:00:11.520,-0.531936,0.05735,8.642239,-0.114248,-0.181244,-0.073529
2024-01-01 00:00:11.530,-1.101472,-0.497451,10.689733,-0.352057,0.261311,0.136214
2024-01-01 00:00:11.540,1.366978,0.659451,9.296523,0.01927,-0.33969,0.181266
2024-01-01 00:00:11.550,0.840673,-0.144609,7.050926,0.263924,0.156857,-0.116104
2024-01-01 00:00:11.560,-0.572885,0.350673,11.365432,-0.274286,-0.253042,-0.101408
2024-01-01 00:00:11.570,1.875153,-0.317956,8.77764,-0.155668,0.377158,0.106899
2024-01-01 00:00:11.580,0.81732,-0.432785,8.671815,0.125637,-0.30892,0.022777
2024-01-01 00:00:11.590,-0.270422,0.056056,9.273116,0.303023,0.23045,-0.102909
2024-01-01 00:00:11.600,-2.080755,0.008544,10.172619,-0.373297,-0.016327,-0.052827
2024-01-01 00:00:11.610,1.90721,0.319565,9.733716,-0.042196,-0.073321,-0.010578
2024-01-01 00:00:11.620,-1.156819,-0.178918,10.540025,0.070783,0.037079,-0.234728
2024-01-01 00:00:11.630,-1.369794,-1.223016,8.0258,-0.025514,0.12638,0.114846
2024-01-01 00:00:11.640,0.85129,-0.288227,8.821141,-0.619198,-0.18088,-0.071804
2024-01-01 00:00:11.650,2.031094,0.528683,9.655492,0.125273,-0.163158,-0.417557
2024-01-01 00:00:11.660,1.152407,-0.198052,12.337986,0.379834,0.129921,-0.003581
2024-01-01 00:00:11.670,0.469454,-0.164091,9.658402,0.029165,-0.341469,-0.111236
2024-01-01 00:00:11.680,0.495133,0.656927,11.255516,-0.257777,-0.116846,0.253323
2024-01-01 00:00:11.690,0.710468,-0.474174,9.861355,-0.128282,0.608137,-0.087817
2024-01-01 00:00:11.700,0.631808,-1.027507,9.165767,0.442478,-0.193603,-0.164647
2024-01-01 00:00:11.710,0.234092,-0.10698,9.481363,0.227491,0.229561,0.07619
2024-01-01 00:00:11.720,0.086747,-0.32246,9.585665,0.160007,-0.11719,-0.099067
2024-01-01 00:00:11.730,-0.052109,-0.64352,10.614056,0.089103,0.101809,-0.116918
2024-01-01 00:00:11.740,-0.627676,-0.116802,11.640982,-0.165284,0.130871,0.076425
2024-01-01 00:00:11.750,2.726338,0.327343,18.429095,-0.050143,0.225791,-0.15607
2024-01-01 00:00:11.760,1.550613,-0.006186,19.531187,-0.019481,-0.040051,-0.218591
2024-01-01 00:00:11.770,2.878132,0.204449,16.6649,0.137394,0.397777,0.2589
2024-01-01 00:00:11.780,2.136998,1.20773,17.397712,0.37723,-0.117867,0.086925
2024-01-01 00:00:11.790,2.041262,-0.228357,16.985229,0.279585,0.046844,-0.039631
2024-01-01 00:00:11.800,0.149762,0.18538,10.22884,-0.354846,0.049055,-0.000522
2024-01-01 00:00:11.810,1.158842,-0.339136,9.331867,0.055999,-0.224394,0.07588
2024-01-01 00:00:11.820,0.764499,-0.563676,10.782058,0.184191,-0.057174,0.146001
2024-01-01 00:00:11.830,-1.307442,-0.389548,8.569906,0.154715,0.032303,-0.113396
2024-01-01 00:00:11.840,-0.823865,-0.318853,9.867317,-0.157308,-0.086424,0.054922
2024-01-01 00:00:11.850,0.783192,0.239411,10.724895,0.728527,0.488185,-0.076006
2024-01-01 00:00:11.860,-0.817921,1.564484,7.059017,-0.319271,-0.167725,-0.028347
2024-01-01 00:00:11.870,-0.187007,-0.476885,12.636013,-0.270797,0.235885,0.024104
2024-01-01 00:00:11.880,0.457918,-0.277472,9.432842,0.058399,0.171292,-0.001002
2024-01-01 00:00:11.890,-0.806147,-0.04204,7.112647,0.529201,-0.002772,0.110335
2024-01-01 00:00:11.900,0.087725,0.263602,10.020581,-0.209049,-0.173042,0.073063
2024-01-01 00:00:11.910,-1.110576,0.175525,9.854547,-0.066457,-0.153651,-0.226225
2024-01-01 00:00:11.920,-0.500639,0.855208,9.700917,0.269323,-0.103593,-0.203673
2024-01-01 00:00:11.930,0.266218,-1.615977,11.130267,-0.004466,-0.357148,-0.055458
2024-01-01 00:00:11.940,-1.326167,-1.589695,10.805597,-0.083651,-0.200693,0.274294
2024-01-01 00:00:11.950,0.366695,-0.330255,10.206771,0.141408,-0.296495,-0.127739
2024-01-01 00:00:11.960,-0.016348,0.730802,10.409607,0.068129,0.269175,-0.031233
2024-01-01 00:00:11.970,0.459948,-1.042722,9.670995,0.25761,0.123692,-0.080452
2024-01-01 00:00:11.980,0.186409,-2.003083,12.174954,0.322867,0.157195,-0.083107
2024-01-01 00:00:11.990,1.135647,0.380405,7.839711,0.076751,0.117766,0.026736
2024-01-01 00:00:12.000,0.104249,0.162276,9.996016,0.072933,0.033394,0.210117
2024-01-01 00:00:12.010,-0.35748,-0.726079,9.896613,0.053528,0.292136,0.068395
2024-01-01 00:00:12.020,0.101813,-0.656369,10.89329,0.122283,-0.122153,-0.12053
2024-01-01 00:00:12.030,0.452296,-0.645849,8.685987,0.013793,0.021334,0.412984
2024-01-01 00:00:12.040,0.040676,0.073617,7.487428,-0.000152,0.149412,0.011786
2024-01-01 00:00:12.050,0.033793,-0.417126,10.018888,0.299157,-0.264242,-0.086583
2024-01-01 00:00:12.060,-0.584408,0.329047,10.184599,0.379029,0.619318,0.211814
2024-01-01 00:00:12.070,-0.551865,-1.901181,11.794146,-0.376888,0.005713,-0.070361
2024-01-01 00:00:12.080,-1.167669,-0.570663,8.117878,0.002505,0.028398,0.249437
2024-01-01 00:00:12.090,1.456523,-0.749952,11.348052,-0.172174,0.251376,-0.130596
2024-01-01 00:00:12.100,-1.035516,-0.170723,12.963396,-0.077743,0.182991,0.214505
2024-01-01 00:00:12.110,-0.576844,-0.35834,9.306817,0.100629,0.007616,0.030157
2024-01-01 00:00:12.120,-0.598074,0.531364,8.090465,0.16736,0.026026,0.193658
2024-01-01 00:00:12.130,0.745025,-1.238318,9.26791,-0.028032,-0.30083,0.285265
2024-01-01 00:00:12.140,-0.245546,0.030297,9.828655,-0.478335,-0.111293,-0.169891
2024-01-01 00:00:12.150,1.038745,0.371852,10.560965,-0.241261,0.103442,0.191366
2024-01-01 00:00:12.160,-0.560681,1.236527,9.022262,0.224125,0.088779,-0.211336
2024-01-01 00:00:12.170,0.232263,-0.320856,11.881524,-0.685107,0.244233,-0.157078
2024-01-01 00:00:12.180,-0.695426,0.216089,8.325443,0.296857,-0.0241,-0.120511
2024-01-01 00:00:12.190,1.785837,-1.201373,7.493379,0.130307,-0.277457,0.075545
2024-01-01 00:00:12.200,-0.988676,-1.593043,11.284138,0.329044,0.211346,0.004952
2024-01-01 00:00:12.210,0.257926,0.56262,6.780205,-0.049642,0.287218,-0.02507
2024-01-01 00:00:12.220,0.527619,-0.003703,9.538099,-0.515351,0.179649,0.021935
2024-01-01 00:00:12.230,0.344488,0.784889,13.962751,0.107591,-0.032727,0.088693
2024-01-01 00:00:12.240,-0.154252,-0.914686,9.793958,0.318663,0.208877,0.100237
2024-01-01 00:00:12.250,-0.108076,0.346255,8.317137,0.23118,0.685782,0.164125
2024-01-01 00:00:12.260,0.036473,1.244633,9.733547,-0.165673,0.02303,0.273005
2024-01-01 00:00:12.270,-0.122379,0.279524,9.742333,0.02169,-0.262347,-0.003204
2024-01-01 00:00:12.280,0.802429,0.184203,10.023986,-0.133209,-0.117257,-0.078163
2024-01-01 00:00:12.290,1.84026,0.005698,10.692134,-0.204817,0.125095,0.09203
2024-01-01 00:00:12.300,-0.464112,-1.046207,8.425904,0.238847,-0.320961,-0.171638
2024-01-01 00:00:12.310,-1.140361,0.902812,12.057814,-0.299383,0.033881,-0.101806
2024-01-01 00:00:12.320,-0.073495,-0.406831,10.136492,-0.223454,0.076067,0.149907
2024-01-01 00:00:12.330,2.147608,0.335986,10.77809,-0.276006,0.307024,-0.018619
2024-01-01 00:00:12.340,-0.669059,-1.040981,8.973305,-0.372562,0.262039,-0.181229
2024-01-01 00:00:12.350,1.364565,-0.78552,11.523461,0.036604,0.172917,-0.22347
2024-01-01 00:00:12.360,1.396686,0.955768,9.467606,0.290376,-0.432536,0.007308
2024-01-01 00:00:12.370,-0.460862,-0.231303,10.1797,-0.046219,0.184211,0.171284
2024-01-01 00:00:12.380,0.473678,0.967881,8.567103,-0.376437,0.141103,0.169282
2024-01-01 00:00:12.390,1.35564,-0.052102,8.482087,0.209986,0.051189,0.016632
2024-01-01 00:00:12.400,-0.315624,-1.226704,10.726689,0.421425,-0.346044,0.301336
2024-01-01 00:00:12.410,-0.169481,0.594117,9.219116,-0.161561,-0.155355,-0.015723
2024-01-01 00:00:12.420,-0.484249,-0.392868,8.672708,-0.119639,-0.233365,-0.020785
2024-01-01 00:00:12.430,-0.844785,0.465327,8.95328,0.128915,-0.403002,-0.385115
2024-01-01 00:00:12.440,-0.540524,0.01679,10.741005,0.405468,-0.000583,-0.067104
2024-01-01 00:00:12.450,-1.01893,-1.027717,8.972122,-0.129959,-0.159564,0.127802
2024-01-01 00:00:12.460,0.028374,0.10942,9.653284,-0.333112,0.525061,0.234594
2024-01-01 00:00:12.470,-0.641003,1.462685,9.830017,0.157855,-0.033754,-0.124535
2024-01-01 00:00:12.480,0.194627,0.328329,7.256091,0.199767,0.258751,0.069338
2024-01-01 00:00:12.490,-1.295283,-0.038307,7.85046,0.001533,-0.31382,0.157032
2024-01-01 00:00:12.500,0.275458,0.716179,10.257922,-0.139533,-0.106018,0.001681
2024-01-01 00:00:12.510,0.693913,0.140305,8.828277,0.248595,0.01938,-0.342492
2024-01-01 00:00:12.520,-1.659785,0.13955,11.217558,0.132009,-0.181631,0.037093
2024-01-01 00:00:12.530,0.311402,-0.727022,11.097787,-0.192109,-0.08444,0.114215
2024-01-01 00:00:12.540,1.022034,0.155743,10.767933,0.012274,-0.04359,-0.142113
2024-01-01 00:00:12.550,-1.007026,0.689605,12.233936,-0.337927,-0.046782,-0.038123
2024-01-01 00:00:12.560,1.392417,-0.556817,9.699325,0.171473,0.371024,-0.173324
2024-01-01 00:00:12.570,0.348833,0.948714,10.674311,-0.065558,0.075645,-0.385522
2024-01-01 00:00:12.580,-0.586922,-0.061076,9.031578,-0.108928,0.095902,0.154051
2024-01-01 00:00:12.590,-0.046428,-0.591254,13.076557,-0.008219,0.107931,-0.000562
2024-01-01 00:00:12.600,0.464807,0.664423,12.4522,0.010077,0.122525,0.239651
2024-01-01 00:00:12.610,0.063274,-0.191005,9.825825,0.223733,-0.016577,0.128598
2024-01-01 00:00:12.620,0.448514,0.505837,10.324933,0.147773,-0.064149,-0.053131
2024-01-01 00:00:12.630,-0.766461,-0.194311,11.620584,-0.039102,0.033363,-0.012477
2024-01-01 00:00:12.640,0.140993,-0.039844,9.61401,0.190917,0.231361,0.084927
2024-01-01 00:00:12.650,-1.176917,0.328711,8.935377,0.100184,0.225248,0.145033
2024-01-01 00:00:12.660,-0.092596,0.193737,10.974154,-0.10665,-0.04808,0.048401
2024-01-01 00:00:12.670,-0.752503,-1.329024,9.914481,-0.03118,0.153569,0.165839
2024-01-01 00:00:12.680,-0.612329,-0.746748,10.053749,-0.037056,-0.038917,-0.0445
2024-01-01 00:00:12.690,1.029048,0.618987,8.698751,0.126315,0.006774,-0.149572
2024-01-01 00:00:12.700,0.908516,-0.088003,7.522061,-0.091756,-0.094705,-0.009721
2024-01-01 00:00:12.710,0.507107,-0.348805,10.124542,-0.097602,-0.036329,0.030778
2024-01-01 00:00:12.720,-0.90935,-0.90481,11.015409,0.492189,0.268266,-0.18023
2024-01-01 00:00:12.730,-0.26341,-0.719104,9.509225,0.234934,0.018484,-0.200508
2024-01-01 00:00:12.740,1.009904,-1.346518,11.723324,-0.19015,0.027057,0.067108
2024-01-01 00:00:12.750,0.117979,-0.067453,8.872383,0.142735,-0.289444,-0.060954
2024-01-01 00:00:12.760,1.930842,-0.398559,8.405134,0.029588,-0.061849,-0.024876
2024-01-01 00:00:12.770,0.327437,-0.643748,9.720449,0.097888,-0.048263,-0.053954
2024-01-01 00:00:12.780,0.159881,-0.04537,9.699987,0.034335,-0.165829,0.22809
2024-01-01 00:00:12.790,-0.257339,0.242404,10.835598,0.297411,0.004333,0.189264
2024-01-01 00:00:12.800,0.111173,1.39407,8.77775,0.086405,-0.085836,-0.185603
2024-01-01 00:00:12.810,-0.126931,-1.006914,11.632302,-0.015522,0.015999,-0.079919
2024-01-01 00:00:12.820,0.5895,0.772148,12.429933,0.260548,0.024301,0.127501
2024-01-01 00:00:12.830,0.796455,0.648086,9.75786,0.058321,-0.191151,0.09029
2024-01-01 00:00:12.840,-0.654336,-0.518876,11.474614,0.03037,-0.07974,-0.006219
2024-01-01 00:00:12.850,-1.108251,0.135355,8.402746,0.078506,0.015475,-0.17064
2024-01-01 00:00:12.860,-1.528641,-0.304784,11.242195,-0.023402,0.23686,-0.102381
2024-01-01 00:00:12.870,0.422903,0.123669,11.204972,0.002307,0.051344,-0.077515
2024-01-01 00:00:12.880,-0.918553,1.005081,10.960098,-0.146674,-0.132387,0.041549
2024-01-01 00:00:12.890,-1.792281,0.403334,9.78927,-0.187792,0.079801,0.255559
2024-01-01 00:00:12.900,0.323492,0.338733,5.87494,-0.249643,0.34151,-0.103032
2024-01-01 00:00:12.910,2.075422,-0.286586,8.955219,-0.347996,0.183341,-0.153905
2024-01-01 00:00:12.920,-0.005054,-0.988382,8.97628,-0.219929,0.109505,-0.016288
2024-01-01 00:00:12.930,0.698044,-0.13884,8.506964,-0.043567,0.145118,0.154761
2024-01-01 00:00:12.940,0.068123,0.803601,9.972828,0.025779,0.287991,-0.217032
2024-01-01 00:00:12.950,-0.082326,-1.017094,9.251941,-0.067824,0.215125,0.218045
2024-01-01 00:00:12.960,0.765131,-0.70269,8.711617,-0.588926,0.113352,-0.025805
2024-01-01 00:00:12.970,2.718346,0.084094,16.539678,0.393647,0.213728,-0.110148
2024-01-01 00:00:12.980,3.182604,-0.65578,16.996937,0.27162,-0.21633,-0.240028
2024-01-01 00:00:12.990,3.227813,-0.527821,19.443837,0.11144,-0.300453,0.105978
2024-01-01 00:00:13.000,2.403815,-0.282117,17.069515,0.476873,0.03142,-0.025676
2024-01-01 00:00:13.010,3.785875,-0.909501,17.264102,-0.244341,0.013736,0.025606
2024-01-01 00:00:13.020,-0.145654,-0.648765,9.201679,0.471906,-0.108782,-0.135122
2024-01-01 00:00:13.030,-0.629158,0.468483,10.261539,-0.241304,0.165171,-0.047864
2024-01-01 00:00:13.040,0.446644,-0.870708,10.417724,0.059684,-0.372573,-0.072987
2024-01-01 00:00:13.050,-0.747975,-1.064183,5.754517,-0.318459,-0.106954,-0.015089
2024-01-01 00:00:13.060,0.023461,-0.419597,11.170818,0.003674,-0.096991,-0.100433
2024-01-01 00:00:13.070,-0.007592,0.487482,11.723242,0.096542,-0.32726,-0.230127
2024-01-01 00:00:13.080,0.904008,-0.13115,8.411152,-0.038673,0.298946,0.409275
2024-01-01 00:00:13.090,0.395186,-0.309411,8.514899,0.178469,-0.27184,-0.204511
2024-01-01 00:00:13.100,-0.020835,0.029543,9.210262,0.024754,-0.117668,0.027219
2024-01-01 00:00:13.110,0.68079,-1.162641,8.803003,-0.130604,0.181596,-0.265804
2024-01-01 00:00:13.120,1.157348,0.329474,10.108271,-0.141703,0.129209,-0.299557
2024-01-01 00:00:13.130,0.464377,0.255368,7.217228,0.202728,-0.221635,0.014674
2024-01-01 00:00:13.140,0.008619,-0.272599,8.32092,-0.163436,0.136498,0.026155
2024-01-01 00:00:13.150,-1.092104,0.669946,11.860211,0.228851,0.057957,0.189225
2024-01-01 00:00:13.160,-0.886707,-0.750912,8.573611,0.305678,0.466607,0.059932
2024-01-01 00:00:13.170,-0.2541,0.751187,11.466246,-0.417178,0.080788,-0.022472
2024-01-01 00:00:13.180,-0.507419,0.102893,10.28331,0.283232,-0.028248,-0.14244
2024-01-01 00:00:13.190,-0.155654,-0.224144,7.400055,0.515106,-0.1713,0.224852
2024-01-01 00:00:13.200,0.047161,-0.013236,10.656258,0.063001,-0.148849,0.139328
2024-01-01 00:00:13.210,0.440969,-0.071438,9.653267,0.149771,-0.165154,-0.186949
2024-01-01 00:00:13.220,-0.05869,0.812708,9.203318,0.259251,0.27422,0.005695
2024-01-01 00:00:13.230,0.405013,-0.717068,10.136283,-0.068871,0.003594,0.021608
2024-01-01 00:00:13.240,0.053675,-0.507838,10.442212,0.04557,0.113049,-0.051848
2024-01-01 00:00:13.250,-1.644576,0.690178,10.752512,-0.32855,0.30285,0.115778
2024-01-01 00:00:13.260,-0.781997,-0.396626,11.379433,0.034659,-0.471693,0.12476
2024-01-01 00:00:13.270,-0.119953,0.599755,10.353637,0.124528,0.255775,-0.028573
2024-01-01 00:00:13.280,-1.007071,1.131824,7.977655,0.129041,0.011079,-0.04213
2024-01-01 00:00:13.290,0.499441,-0.267595,9.179104,0.266356,0.08701,0.224844
2024-01-01 00:00:13.300,1.27435,0.453787,13.73014,-0.193701,-0.165681,0.139926
2024-01-01 00:00:13.310,1.014619,-0.768359,10.775022,-0.133152,-0.151025,0.010854
2024-01-01 00:00:13.320,-0.177691,0.502652,12.965891,0.473877,0.097769,-0.244381
2024-01-01 00:00:13.330,1.24103,0.132816,11.668718,-0.037582,0.47692,0.0516
2024-01-01 00:00:13.340,0.123766,0.315043,10.13208,0.050008,0.200663,0.104713
2024-01-01 00:00:13.350,-0.280624,-0.429951,10.211474,-0.016753,0.253105,-0.413178
2024-01-01 00:00:13.360,2.449342,-1.106282,17.901275,-0.20542,-0.0384,0.03778
2024-01-01 00:00:13.370,2.708194,0.335166,15.635244,0.405882,-0.120041,-0.062504
2024-01-01 00:00:13.380,2.636843,-1.374226,17.974039,-0.131925,-0.156161,-0.033128
2024-01-01 00:00:13.390,3.101872,-0.211355,19.562619,-0.281821,-0.097655,-0.136107
2024-01-01 00:00:13.400,3.093678,0.626827,17.15128,-0.112685,-0.410556,-0.022228
2024-01-01 00:00:13.410,0.002536,0.127804,10.358721,-0.500427,-0.144984,0.208799
2024-01-01 00:00:13.420,0.363751,1.297596,10.944319,-0.162822,-0.112071,-0.06696
2024-01-01 00:00:13.430,0.991213,0.682723,8.598306,-0.242032,-0.035072,0.144836
2024-01-01 00:00:13.440,0.790504,-0.435496,9.208865,0.154357,0.02635,-0.12095
2024-01-01 00:00:13.450,-1.236178,0.018191,8.454142,-0.168354,0.07249,0.113813
2024-01-01 00:00:13.460,-2.126139,-0.031549,8.714875,0.221951,-0.002985,0.000248
2024-01-01 00:00:13.470,0.777821,-1.05373,8.09491,0.349621,-0.116289,0.052804
2024-01-01 00:00:13.480,-1.137927,-0.626306,8.610603,0.195294,-0.392672,0.001073
2024-01-01 00:00:13.490,-0.187117,-0.373467,11.700715,-0.053847,-0.115062,0.096244
2024-01-01 00:00:13.500,-0.974119,-1.356123,8.590585,0.035279,-0.19449,-0.385138
2024-01-01 00:00:13.510,-1.500149,0.031631,9.978444,-0.381246,0.093213,-0.212974
2024-01-01 00:00:13.520,0.450768,-0.165882,9.140179,-0.033445,0.181857,0.062562
2024-01-01 00:00:13.530,0.631997,-1.114147,11.380249,-0.21511,0.187714,-0.306531
2024-01-01 00:00:13.540,-0.479945,0.269206,11.556468,0.173582,0.151391,-0.079587
2024-01-01 00:00:13.550,-2.157043,0.476771,10.960941,0.643188,-0.026705,-0.008151
2024-01-01 00:00:13.560,-0.454749,0.151205,10.217771,0.124955,-0.104391,-0.124221
2024-01-01 00:00:13.570,0.326177,-0.215829,9.502229,-0.497785,-0.149421,-0.103734
2024-01-01 00:00:13.580,-1.231194,0.3939,8.222423,-0.090308,-0.3015,0.040737
2024-01-01 00:00:13.590,0.152647,0.453027,12.39878,0.030623,0.198371,0.151394
2024-01-01 00:00:13.600,-0.012745,0.204731,8.798116,0.021839,-0.034942,-0.143767
2024-01-01 00:00:13.610,0.48226,-0.549192,10.693977,-0.182703,-0.249268,-0.086259
2024-01-01 00:00:13.620,0.099551,0.184216,11.221341,0.061323,-0.165298,-0.109689
2024-01-01 00:00:13.630,-0.81008,0.79619,9.070366,-0.310625,-0.173395,-0.363207
2024-01-01 00:00:13.640,0.996146,-0.397355,11.192633,-0.236227,0.008605,0.021257
2024-01-01 00:00:13.650,-0.131976,1.397228,10.827932,0.161449,0.213494,0.140208
2024-01-01 00:00:13.660,-0.022731,-0.35007,12.111648,-0.253916,-0.069598,0.152496
2024-01-01 00:00:13.670,-0.776946,0.021583,9.184831,0.134553,-0.450507,-0.130615
2024-01-01 00:00:13.680,-0.369032,-0.447875,8.097229,-0.342366,-0.037836,-0.187755
2024-01-01 00:00:13.690,-0.736598,0.148698,9.136688,0.441206,-0.031239,0.003241
2024-01-01 00:00:13.700,-0.143978,-1.16032,10.088193,-0.193567,-0.044984,0.124391
2024-01-01 00:00:13.710,1.424997,-0.363664,9.887539,-0.055917,-0.125492,0.023228
2024-01-01 00:00:13.720,-1.142108,-0.727353,9.285941,0.082653,0.043488,0.043396
2024-01-01 00:00:13.730,-1.34329,0.090135,7.266949,-0.141337,0.013228,0.171275
2024-01-01 00:00:13.740,1.224749,0.662302,10.436683,0.035851,-0.004966,-0.11087
2024-01-01 00:00:13.750,-0.174262,0.43024,12.437163,0.143839,0.082528,-0.032996
2024-01-01 00:00:13.760,-0.557003,-1.579525,10.428383,0.240153,-0.085967,0.245191
2024-01-01 00:00:13.770,0.865721,1.360018,10.621369,0.197874,-0.097317,-0.029522
2024-01-01 00:00:13.780,-0.504175,0.196656,10.572497,-0.042953,0.276025,-0.190101
2024-01-01 00:00:13.790,1.520153,-0.517148,10.338866,-0.036658,0.111871,-0.100403
2024-01-01 00:00:13.800,0.564373,0.104647,11.050979,0.587277,0.165389,-0.140727
2024-01-01 00:00:13.810,-0.406186,0.117342,10.336638,0.237472,0.245221,0.053574
2024-01-01 00:00:13.820,1.795959,-0.444121,9.393514,-0.230456,0.105189,-0.134392
2024-01-01 00:00:13.830,-0.504258,0.131813,8.749743,0.024997,0.185678,0.040655
2024-01-01 00:00:13.840,0.617794,-0.404577,9.478367,-0.083786,-0.315869,-0.11041
2024-01-01 00:00:13.850,0.249161,-0.269305,10.22842,-0.033834,0.040831,-0.318507
2024-01-01 00:00:13.860,1.0837,-0.457062,9.388977,-0.307374,-0.036544,0.045993
2024-01-01 00:00:13.870,1.299958,-0.954159,10.228699,-0.102981,0.335537,0.02227
2024-01-01 00:00:13.880,0.026643,0.097127,10.394948,0.452889,0.185529,0.077664
2024-01-01 00:00:13.890,-0.62722,0.389809,10.919795,0.144769,-0.126089,-0.100948
2024-01-01 00:00:13.900,0.382927,0.342912,11.518683,-0.62279,0.074559,-0.116932
2024-01-01 00:00:13.910,-0.564198,0.54607,9.913906,0.304181,0.033536,0.06022
2024-01-01 00:00:13.920,1.676145,0.216011,8.068042,0.272407,0.090866,0.227853
2024-01-01 00:00:13.930,0.113666,-0.354795,9.350321,-0.089821,-0.203768,0.001675
2024-01-01 00:00:13.940,-0.30413,0.559216,9.868691,0.179316,0.072003,0.063688
2024-01-01 00:00:13.950,0.153746,-0.904107,7.364756,-0.21485,-0.04563,-0.048238
2024-01-01 00:00:13.960,-1.121483,-0.599847,11.659701,-0.117564,0.05649,-0.231545
2024-01-01 00:00:13.970,-0.808869,-0.642157,9.999647,0.374637,-0.144877,0.145114
2024-01-01 00:00:13.980,0.999345,0.719317,10.317962,-0.067933,-0.117013,0.136262
2024-01-01 00:00:13.990,-0.546864,0.627897,11.628881,-0.467433,0.234768,0.106616
2024-01-01 00:00:14.000,-0.871553,0.324545,8.97065,-0.015826,-0.21031,-0.027292
2024-01-01 00:00:14.010,0.446763,0.713905,10.574624,-0.019647,-0.195551,0.089558
2024-01-01 00:00:14.020,0.987099,-0.585602,9.663661,0.299592,-0.010316,0.134064
2024-01-01 00:00:14.030,0.598529,0.232164,9.564796,0.003584,-0.154378,0.243024
2024-01-01 00:00:14.040,0.82921,-0.083366,8.78144,-0.105396,-0.177006,0.148279
2024-01-01 00:00:14.050,-0.630032,0.564023,12.028583,0.261264,0.021015,0.009573
2024-01-01 00:00:14.060,-1.183657,-0.076739,9.309834,0.030198,-0.301013,-0.196238
2024-01-01 00:00:14.070,1.24986,-0.256372,10.741686,-0.187506,-0.201592,0.023349
2024-01-01 00:00:14.080,-0.268631,0.360245,7.31249,0.288749,0.410819,0.038487
2024-01-01 00:00:14.090,-0.208818,0.583529,11.381745,0.048415,0.091895,0.106354
2024-01-01 00:00:14.100,1.105722,-0.445118,11.211545,0.000731,-0.149313,0.203084
2024-01-01 00:00:14.110,0.463061,-0.040676,9.939782,0.044477,0.083643,-0.014273
2024-01-01 00:00:14.120,0.379527,-0.704921,9.507713,-0.267667,0.113466,0.315148
2024-01-01 00:00:14.130,1.802364,-1.663709,10.3428,-0.131913,0.198883,-0.263893
2024-01-01 00:00:14.140,-0.535729,0.133506,12.858669,0.000896,-0.025431,0.062901
2024-01-01 00:00:14.150,0.772427,0.405531,7.461369,-0.048666,0.1953,-0.119778
2024-01-01 00:00:14.160,0.047463,0.174536,10.85166,0.318107,-0.407689,-0.286083
2024-01-01 00:00:14.170,0.223603,-1.298408,8.595726,0.054351,-0.211262,-0.030266
2024-01-01 00:00:14.180,1.27245,-0.233666,9.783469,0.213726,0.032774,-0.218576
2024-01-01 00:00:14.190,0.422773,-1.47742,9.479824,0.002349,0.065927,-0.024214
2024-01-01 00:00:14.200,0.448131,0.912221,9.23948,0.264072,-0.182356,0.005215
2024-01-01 00:00:14.210,0.892862,-0.723312,9.79606,0.099382,0.051884,0.167781
2024-01-01 00:00:14.220,-0.303823,0.836099,8.299284,0.003355,-0.124768,-0.226138
2024-01-01 00:00:14.230,-0.698642,0.629949,11.180868,-0.003321,-0.055392,0.136267
2024-01-01 00:00:14.240,-0.869804,-0.599793,7.420201,-0.23861,0.204955,0.014712
2024-01-01 00:00:14.250,-1.636992,-0.754435,10.528966,0.126729,0.181787,0.154327
2024-01-01 00:00:14.260,1.711792,0.233347,9.375054,-0.010051,-0.199412,-0.064763
2024-01-01 00:00:14.270,-0.918421,-0.56232,8.250328,-0.125498,-0.21145,-0.199837
2024-01-01 00:00:14.280,-0.184194,0.068255,10.079575,0.276615,-0.082235,-0.182625
2024-01-01 00:00:14.290,-0.230447,-0.321563,7.736141,-0.312554,-0.005349,-0.193771
2024-01-01 00:00:14.300,0.255916,-1.186252,9.862899,-0.105624,-0.13158,0.071672
2024-01-01 00:00:14.310,0.679101,-1.485492,7.914728,0.25693,0.208128,0.221538
2024-01-01 00:00:14.320,0.716344,0.150972,10.424414,0.078881,0.069478,-0.084743
2024-01-01 00:00:14.330,-0.485412,-0.373997,8.578756,-0.011965,0.081217,0.09437
2024-01-01 00:00:14.340,-0.139129,-0.368358,9.209276,0.062751,-0.253308,-0.228516
2024-01-01 00:00:14.350,0.235248,0.463445,10.201541,0.044854,0.233458,0.027048
2024-01-01 00:00:14.360,-0.207035,0.781513,8.780974,-0.379166,-0.564034,0.100284
2024-01-01 00:00:14.370,1.338115,-0.181515,9.732792,-0.087315,0.166811,-0.217219
2024-01-01 00:00:14.380,0.408737,-0.226839,7.793578,0.40413,0.186862,-0.030583
2024-01-01 00:00:14.390,0.611786,0.333095,10.650326,-0.164831,-0.08648,0.107388
2024-01-01 00:00:14.400,0.551849,-0.903719,12.160865,-0.079575,0.254582,-0.440066
2024-01-01 00:00:14.410,0.976917,0.14862,13.529222,-0.135405,-0.01262,0.200318
2024-01-01 00:00:14.420,0.1507,0.367556,9.931436,-0.021754,0.012486,0.053052
2024-01-01 00:00:14.430,-1.079613,0.453033,10.859888,-0.145781,0.067906,0.107509
2024-01-01 00:00:14.440,0.33274,-1.289877,7.438207,0.121685,0.637315,-0.061908
2024-01-01 00:00:14.450,-0.542255,-0.507063,11.811642,0.049328,0.268887,-0.258408
2024-01-01 00:00:14.460,-0.440073,-0.584923,10.843936,0.193387,0.140226,0.080109
2024-01-01 00:00:14.470,0.488148,0.066525,9.165401,-0.262735,-0.182561,-0.012389
2024-01-01 00:00:14.480,1.030871,0.320176,11.457925,-0.085085,0.028718,0.004817
2024-01-01 00:00:14.490,0.017709,0.996809,9.471038,-0.056431,-0.162625,0.163141
2024-01-01 00:00:14.500,0.257103,-0.329647,9.19991,0.113912,0.164422,0.11431
2024-01-01 00:00:14.510,1.417094,-0.331383,10.443146,-0.198305,0.028093,0.288186
2024-01-01 00:00:14.520,0.200427,0.765682,8.393612,0.228913,-0.224904,0.023078
2024-01-01 00:00:14.530,2.165901,0.19752,11.170804,0.296604,0.016225,-0.103682
2024-01-01 00:00:14.540,0.470787,0.844256,8.403422,-0.247218,-0.169883,-0.028263
2024-01-01 00:00:14.550,-1.465835,0.192293,8.411327,-0.122718,0.030243,0.06235
2024-01-01 00:00:14.560,0.627157,-0.77064,8.598293,-0.132983,-0.171815,0.152378
2024-01-01 00:00:14.570,0.317314,-0.887863,10.821654,0.658097,0.005498,-0.220055
2024-01-01 00:00:14.580,4.033719,-1.033307,17.128455,-0.107475,0.150094,0.001281
2024-01-01 00:00:14.590,3.520423,0.440927,16.15447,0.419406,-0.01061,0.241431
2024-01-01 00:00:14.600,2.844735,0.791605,17.143234,-0.316658,-0.078178,-0.036031
2024-01-01 00:00:14.610,1.940772,1.231675,17.90732,-0.247413,0.040655,0.139652
2024-01-01 00:00:14.620,2.785988,0.561508,16.376945,-0.171651,0.139437,0.073968
2024-01-01 00:00:14.630,-0.708058,0.77445,8.275961,-0.211422,-0.221437,0.143379
2024-01-01 00:00:14.640,-0.483286,-0.386291,12.622247,-0.066975,0.052131,-0.121464
2024-01-01 00:00:14.650,0.489992,-0.770173,8.663727,-0.177195,0.263508,-0.12081
2024-01-01 00:00:14.660,1.390195,0.566153,9.379708,-0.204835,0.114731,0.003041
2024-01-01 00:00:14.670,0.328564,0.278175,9.32084,0.289618,0.011551,-0.229833
2024-01-01 00:00:14.680,-0.995573,0.071558,9.248753,0.305948,0.127948,-0.040461
2024-01-01 00:00:14.690,0.370132,0.257989,10.637634,0.237324,0.090499,0.037931
2024-01-01 00:00:14.700,0.996196,0.215242,11.072926,0.131,0.15072,0.267695
2024-01-01 00:00:14.710,-0.507644,0.855022,9.402469,0.023186,-0.404786,0.060408
2024-01-01 00:00:14.720,-0.111569,0.86246,8.163011,-0.124258,-0.310691,0.093784
2024-01-01 00:00:14.730,0.012228,0.362451,11.507554,-0.238289,0.200966,0.174671
2024-01-01 00:00:14.740,-0.653428,0.563305,9.683006,0.090749,-0.301056,-0.144699
2024-01-01 00:00:14.750,0.539693,0.342366,12.114789,-0.293408,0.080308,-0.024762
2024-01-01 00:00:14.760,-0.100689,-0.307139,6.81888,-0.24848,-0.07041,0.363812
2024-01-01 00:00:14.770,0.349261,0.503872,10.070277,0.288228,-0.199238,-0.011868
2024-01-01 00:00:14.780,-0.738837,-0.928734,12.365584,0.475162,0.06993,0.167465
2024-01-01 00:00:14.790,-0.364184,0.701892,9.339452,0.098324,0.040207,0.144561
2024-01-01 00:00:14.800,0.601382,-0.795552,9.509643,0.276614,0.422069,-0.221717
2024-01-01 00:00:14.810,-0.310384,0.190345,10.203622,-0.061462,-0.124962,0.046572
2024-01-01 00:00:14.820,1.437697,-0.562873,9.065684,-0.334419,0.288022,0.022012
2024-01-01 00:00:14.830,-0.332697,0.368557,9.39432,0.153043,0.070485,0.049494
2024-01-01 00:00:14.840,0.18705,-0.022594,9.36003,0.142322,-0.132204,-0.113117
2024-01-01 00:00:14.850,0.776382,-1.062107,8.974276,0.017917,0.159849,-0.167538
2024-01-01 00:00:14.860,-1.180789,0.280186,11.446837,-0.060594,0.113148,-0.071402
2024-01-01 00:00:14.870,-1.465873,-0.384895,10.424156,0.240553,0.007169,-0.014669
2024-01-01 00:00:14.880,-1.270109,0.586844,10.143837,-0.246433,0.053259,0.177748
2024-01-01 00:00:14.890,1.051101,0.000883,10.887017,-0.193445,-0.119397,0.272597
2024-01-01 00:00:14.900,-0.459422,0.26335,9.457878,-0.252027,-0.165157,0.20949
2024-01-01 00:00:14.910,2.129701,-0.637741,8.778761,0.021243,0.151888,0.129028
2024-01-01 00:00:14.920,-0.469736,-0.392495,9.007304,-0.271973,-0.044788,-0.150651
2024-01-01 00:00:14.930,0.153639,-0.305453,9.812375,-0.171061,-0.016017,-0.061334
