timestamp,acc_x,acc_y,acc_z,gyro_x,gyro_y,gyro_z
2024-01-01 00:00:00.000,0.17385,0.627658,8.757255,0.191351,1.143704,-0.021513
2024-01-01 00:00:00.010,0.010658,0.940954,9.219671,0.299847,0.37762,0.010848
2024-01-01 00:00:00.020,0.344701,1.072199,9.244014,0.187611,0.757529,0.041114
2024-01-01 00:00:00.030,0.709846,1.757943,9.653782,-0.391339,0.815971,0.189172
2024-01-01 00:00:00.040,0.153334,1.352111,10.026802,0.086631,0.812149,-0.049339
2024-01-01 00:00:00.050,0.211477,0.776172,10.789623,-0.132433,0.830072,-0.048705
2024-01-01 00:00:00.060,0.903832,1.312474,10.331208,0.136606,0.909468,0.279122
2024-01-01 00:00:00.070,0.676848,0.69051,9.807355,0.462732,0.715224,0.039469
2024-01-01 00:00:00.080,0.300435,1.465756,11.469973,0.324155,0.594791,-0.065522
2024-01-01 00:00:00.090,0.710431,0.98409,10.536892,0.564642,0.54338,0.06604
2024-01-01 00:00:00.100,0.413317,1.080071,11.109263,0.392379,0.44687,0.103962
2024-01-01 00:00:00.110,0.466593,1.486917,11.52044,0.011204,0.747388,0.401137
2024-01-01 00:00:00.120,0.767394,0.682356,11.506108,-0.266101,0.336212,0.320779
2024-01-01 00:00:00.130,0.06511,0.62704,12.107038,0.429073,0.653792,0.368064
2024-01-01 00:00:00.140,0.181948,0.847145,11.86437,0.365542,0.388363,0.332508
2024-01-01 00:00:00.150,0.638562,1.308202,11.209048,0.201291,0.192436,0.3647
2024-01-01 00:00:00.160,0.52927,0.513803,12.948491,0.046183,0.414487,0.132457
2024-01-01 00:00:00.170,1.040776,0.091376,11.909923,0.312735,0.013546,0.21842
2024-01-01 00:00:00.180,0.658566,0.775632,11.759677,0.47211,0.289269,0.111879
2024-01-01 00:00:00.190,0.52614,1.045046,12.393232,0.710707,0.116414,0.240546
2024-01-01 00:00:00.200,1.575913,1.206783,12.007175,0.614057,-0.152732,0.386065
2024-01-01 00:00:00.210,1.024755,0.673623,12.080959,0.990698,0.061648,0.314528
2024-01-01 00:00:00.220,1.166542,0.653752,13.208047,0.350649,-0.000287,0.501497
2024-01-01 00:00:00.230,0.681603,1.086753,11.646696,0.849739,0.086871,0.143525
2024-01-01 00:00:00.240,1.02526,0.141916,11.56886,0.660248,-0.025291,0.399247
2024-01-01 00:00:00.250,1.28826,0.547447,11.738647,0.840034,-0.206674,0.145938
2024-01-01 00:00:00.260,0.878296,0.681267,12.180478,0.574148,-0.672012,0.355765
2024-01-01 00:00:00.270,1.442358,0.718073,10.665397,0.967047,0.163828,0.460614
2024-01-01 00:00:00.280,1.128328,0.38863,10.302614,0.7877,-0.854647,0.324772
2024-01-01 00:00:00.290,1.262071,0.509328,10.937953,0.557693,-0.31873,0.446446
2024-01-01 00:00:00.300,1.177064,-0.290852,10.227684,0.73708,-0.497079,0.226083
2024-01-01 00:00:00.310,2.057305,0.214116,10.747272,0.691582,-0.943541,0.126182
2024-01-01 00:00:00.320,1.423445,0.502949,11.101905,0.883985,-0.722157,0.4644
2024-01-01 00:00:00.330,1.074918,0.026946,10.171196,0.475785,-0.747561,0.646966
2024-01-01 00:00:00.340,1.747714,0.293568,9.703928,0.771235,-0.433757,0.23988
2024-01-01 00:00:00.350,1.044972,0.363745,10.347457,0.884036,-0.966048,0.575934
2024-01-01 00:00:00.360,1.555531,0.080374,10.598537,0.798884,-0.875891,0.401828
2024-01-01 00:00:00.370,0.804407,0.187449,9.002045,1.131557,-1.412082,0.197057
2024-01-01 00:00:00.380,1.030979,-0.199551,10.192051,0.991289,-0.406902,0.229166
2024-01-01 00:00:00.390,1.567978,-0.019893,9.994786,0.797638,-1.115526,0.402122
2024-01-01 00:00:00.400,1.758449,0.177911,9.873272,0.854165,-0.768241,0.339327
2024-01-01 00:00:00.410,1.558549,-0.005298,9.822081,0.873154,-0.872112,0.202682
2024-01-01 00:00:00.420,1.454353,-0.275504,10.167767,0.898068,-0.862802,0.144515
2024-01-01 00:00:00.430,1.383387,-0.079281,8.568114,0.337598,-0.622181,0.269998
2024-01-01 00:00:00.440,0.962925,0.021064,8.635291,0.714169,-0.388064,0.423847
2024-01-01 00:00:00.450,1.217801,-0.854775,8.161975,0.412755,-0.719244,0.390972
2024-01-01 00:00:00.460,1.295584,0.061828,8.214163,1.096534,-0.589737,0.313296
2024-01-01 00:00:00.470,1.811602,-0.432429,8.885386,0.753646,-0.638002,0.414712
2024-01-01 00:00:00.480,1.544443,-0.24905,7.140009,0.711226,-0.428095,0.535785
2024-01-01 00:00:00.490,0.787472,-0.062084,7.252889,0.973285,-0.75623,0.433662
2024-01-01 00:00:00.500,1.496147,-0.876668,8.340804,0.843031,-0.325705,0.350528
2024-01-01 00:00:00.510,1.223977,-0.721184,8.012337,0.442511,-0.267294,0.501546
2024-01-01 00:00:00.520,1.095764,-0.637315,7.131452,0.69304,-0.221273,0.211406
2024-01-01 00:00:00.530,1.518639,-0.82742,7.693592,0.611969,-0.600883,0.314143
2024-01-01 00:00:00.540,1.635244,-0.112439,7.317141,0.243544,-0.419168,0.309675
2024-01-01 00:00:00.550,1.568209,-0.929597,7.874314,0.48997,-0.256116,0.145727
2024-01-01 00:00:00.560,0.914476,-0.877831,7.024221,0.598489,-0.595635,0.259206
2024-01-01 00:00:00.570,1.064045,-0.68735,7.496211,0.596473,0.210433,0.001361
2024-01-01 00:00:00.580,1.250462,-1.14565,8.349206,0.23452,-0.125572,0.589365
2024-01-01 00:00:00.590,1.436452,-0.938831,7.204376,0.871922,0.015033,0.151391
2024-01-01 00:00:00.600,0.886094,-0.758741,6.897338,0.536504,-0.133299,0.518932
2024-01-01 00:00:00.610,0.945984,-0.986361,7.277836,0.54857,-0.253935,0.275303
2024-01-01 00:00:00.620,0.57934,-0.945671,6.7053,0.615658,-0.006872,0.342478
2024-01-01 00:00:00.630,0.501979,-1.106184,8.260575,0.293995,0.264393,0.172187
2024-01-01 00:00:00.640,1.157702,-1.429986,7.10224,0.579859,0.442107,0.264074
2024-01-01 00:00:00.650,1.299315,-0.905914,6.923767,0.348034,0.376658,0.317475
2024-01-01 00:00:00.660,0.749461,-0.501106,6.699164,0.189008,0.483268,0.30626
2024-01-01 00:00:00.670,1.074734,-1.045666,7.860885,0.529227,0.370249,0.309149
2024-01-01 00:00:00.680,0.797782,-1.005578,7.846084,0.730897,0.633668,0.123739
2024-01-01 00:00:00.690,0.392088,-0.885647,7.219706,0.510743,0.932255,0.092714
2024-01-01 00:00:00.700,0.690081,-1.492875,7.946054,0.531327,0.786205,-0.088835
2024-01-01 00:00:00.710,1.046745,-0.618209,6.945847,0.141006,0.857072,0.214065
2024-01-01 00:00:00.720,0.439944,-1.083402,8.033717,-0.158081,0.768811,0.283019
2024-01-01 00:00:00.730,0.943458,-0.667907,8.346345,0.583645,0.355828,0.347953
2024-01-01 00:00:00.740,-0.578343,-1.388943,9.209595,0.694198,0.502225,0.136061
2024-01-01 00:00:00.750,0.568445,-0.633371,8.026664,0.53545,0.904153,-0.040098
2024-01-01 00:00:00.760,0.253021,-0.954172,7.93327,0.034749,0.809842,-0.195217
2024-01-01 00:00:00.770,0.059332,-1.026896,8.334176,-0.2012,0.939643,0.199979
2024-01-01 00:00:00.780,0.137277,-1.12684,8.285214,-0.210335,1.26075,-0.241399
2024-01-01 00:00:00.790,-0.649475,-1.27399,9.951322,-0.396307,1.029898,-0.038778
2024-01-01 00:00:00.800,-0.08977,-0.839796,10.264699,-0.033716,1.164596,-0.037082
2024-01-01 00:00:00.810,0.053066,-1.156512,9.785587,0.36306,0.869762,-0.029598
2024-01-01 00:00:00.820,0.386413,-1.785546,10.476217,-0.105202,0.63526,-0.029523
2024-01-01 00:00:00.830,-0.370969,-1.525534,10.070524,-0.025526,0.80838,-0.029831
2024-01-01 00:00:00.840,-0.530977,-1.239238,10.132993,0.21163,0.602341,-0.428439
2024-01-01 00:00:00.850,-0.481665,-1.081757,10.185536,-0.264251,1.168803,-0.079415
2024-01-01 00:00:00.860,-0.043231,-1.181184,10.375204,0.314951,0.947698,-0.431402
2024-01-01 00:00:00.870,-0.305566,-0.786162,9.86455,0.273688,0.846449,-0.002335
2024-01-01 00:00:00.880,-0.6624,-1.723044,11.02276,-0.287169,0.987086,-0.210465
2024-01-01 00:00:00.890,-0.352956,-1.078733,11.007471,-0.428437,0.130663,-0.465582
2024-01-01 00:00:00.900,-0.553413,-1.64956,11.581549,-0.138965,0.736347,-0.278768
2024-01-01 00:00:00.910,-0.302244,-0.856897,11.353817,-0.428892,0.211634,-0.256517
2024-01-01 00:00:00.920,-0.939873,-1.092112,11.331691,-0.659355,0.484121,-0.006503
2024-01-01 00:00:00.930,-0.860646,-0.915205,11.048105,-0.077538,0.351635,-0.169428
2024-01-01 00:00:00.940,-0.933854,-1.275953,11.659656,-0.12075,0.53596,-0.160764
2024-01-01 00:00:00.950,-1.358264,-0.607072,12.104765,-0.41234,0.36624,-0.048426
2024-01-01 00:00:00.960,-0.790498,-0.650981,11.134225,-0.792591,0.582223,-0.252859
2024-01-01 00:00:00.970,-0.84949,-0.759528,11.860664,-0.809173,0.030696,-0.137768
2024-01-01 00:00:00.980,-0.98433,-0.943091,11.975078,-0.499123,0.292552,-0.160386
2024-01-01 00:00:00.990,-1.111958,-0.698521,11.470964,-0.674222,0.089217,-0.467598
2024-01-01 00:00:01.000,-1.567367,-1.051436,11.546103,-0.657,-0.427075,-0.064916
2024-01-01 00:00:01.010,-1.259687,-0.54829,11.984289,-0.337822,-0.314706,-0.509702
2024-01-01 00:00:01.020,-1.27116,-0.274453,11.206681,-0.430684,-0.188795,-0.169384
2024-01-01 00:00:01.030,-1.46897,-0.411262,11.97988,-0.289157,0.061413,-0.544407
2024-01-01 00:00:01.040,-1.279745,-0.913338,11.237351,-0.90008,-0.164721,-0.236027
2024-01-01 00:00:01.050,-1.115103,-0.546968,12.242111,-0.755942,-0.634779,-0.055785
2024-01-01 00:00:01.060,-0.627632,-1.003255,12.856911,-0.49708,-0.438109,-0.375359
2024-01-01 00:00:01.070,-1.255976,-0.402561,10.997609,-0.590422,0.043793,-0.389674
2024-01-01 00:00:01.080,-1.254174,-0.397172,11.651735,-0.333874,-0.487625,-0.266918
2024-01-01 00:00:01.090,-1.395527,-1.050548,10.832785,-0.62525,-0.648839,-0.414602
2024-01-01 00:00:01.100,-2.064072,-0.794629,11.668044,-0.280641,-0.492135,-0.098592
2024-01-01 00:00:01.110,-1.422655,-0.486835,10.251957,-0.618795,-0.468471,-0.348071
2024-01-01 00:00:01.120,-1.410975,-0.447327,11.05472,-0.498221,-0.813523,-0.429907
2024-01-01 00:00:01.130,-0.586382,-0.674535,10.143997,-0.853421,-0.609663,-0.467314
2024-01-01 00:00:01.140,-1.530058,-0.149137,10.336268,-0.776552,-0.848797,-0.530004
2024-01-01 00:00:01.150,-1.369138,-0.144116,9.702319,-0.558759,-0.613259,-0.487411
2024-01-01 00:00:01.160,-1.496489,-0.231226,10.535373,-0.388404,-0.772266,-0.448425
2024-01-01 00:00:01.170,-1.900737,-0.352801,9.432018,-0.613264,-0.710747,-0.470933
2024-01-01 00:00:01.180,-1.096759,0.235626,10.001977,-0.819058,-1.032431,-0.497859
2024-01-01 00:00:01.190,-1.236297,0.464835,9.313146,-0.455386,-1.054129,-0.085033
2024-01-01 00:00:01.200,-1.223014,-0.129607,9.242623,-1.347928,-0.613343,-0.554481
2024-01-01 00:00:01.210,-1.816238,-0.120964,9.190431,-1.154466,-0.86521,-0.377459
2024-01-01 00:00:01.220,-1.002728,0.257176,8.49536,-0.626235,-0.764505,-0.309443
2024-01-01 00:00:01.230,-1.977792,0.049362,8.838089,-0.789617,-0.897584,-0.302056
2024-01-01 00:00:01.240,-1.272877,0.161666,9.37611,-0.637036,-0.576436,-0.402998
2024-01-01 00:00:01.250,-0.700458,0.471779,7.923691,-0.766361,-0.928237,-0.427337
2024-01-01 00:00:01.260,-1.800372,-0.276912,8.81967,-0.632562,-0.780538,-0.319917
2024-01-01 00:00:01.270,-1.636201,0.736938,8.830065,-0.970532,-0.515865,-0.343488
2024-01-01 00:00:01.280,-1.385202,0.408274,7.396619,-0.614754,-0.380431,-0.417532
2024-01-01 00:00:01.290,-1.576178,0.307446,6.894067,-0.498042,-0.761746,-0.607605
2024-01-01 00:00:01.300,-1.920404,0.44788,7.719656,-0.429621,-0.094108,-0.437568
2024-01-01 00:00:01.310,-1.32925,0.506399,7.122994,-0.218343,-0.455321,-0.532848
2024-01-01 00:00:01.320,-1.69853,0.040527,8.334353,-0.646562,-0.740658,-0.453867
2024-01-01 00:00:01.330,-1.132387,1.049718,7.22111,-0.623866,-0.330983,-0.341188
2024-01-01 00:00:01.340,-1.58935,0.654052,6.669541,-1.056821,-0.459691,-0.284203
2024-01-01 00:00:01.350,-0.692517,0.813977,6.402602,-0.791516,-0.193864,-0.062264
2024-01-01 00:00:01.360,-1.47466,1.004908,7.570261,-0.688549,-0.24966,-0.40075
2024-01-01 00:00:01.370,-1.27691,0.450346,6.608808,-0.35832,-0.155461,-0.194256
2024-01-01 00:00:01.380,-0.841318,0.934814,6.914381,-0.75331,-0.335933,-0.254386
2024-01-01 00:00:01.390,-1.516968,0.747329,7.398654,-0.380203,0.206145,-0.095244
2024-01-01 00:00:01.400,-0.964986,1.115218,6.604788,-0.557524,-0.263481,-0.192125
2024-01-01 00:00:01.410,-0.543909,0.25525,6.859527,-0.578377,-0.184877,-0.418315
2024-01-01 00:00:01.420,-1.519288,0.894535,6.904738,-0.448,0.250344,-0.513569
2024-01-01 00:00:01.430,-0.845823,0.77283,7.333969,-0.58336,0.624423,-0.196096
2024-01-01 00:00:01.440,-0.771851,1.111289,7.342291,-0.567425,0.199385,-0.30935
2024-01-01 00:00:01.450,-0.540199,1.149035,6.970144,-0.860243,0.524815,-0.36407
2024-01-01 00:00:01.460,-1.196535,0.820583,7.214165,-0.469243,0.677779,-0.393764
2024-01-01 00:00:01.470,-1.174344,0.842467,7.076212,-0.499824,0.670448,-0.165769
2024-01-01 00:00:01.480,-0.476982,1.04453,6.582488,-0.480815,0.443415,0.050246
2024-01-01 00:00:01.490,-0.502172,0.828677,7.663581,-0.219044,0.299664,-0.222932
2024-01-01 00:00:01.500,-0.463959,1.368503,8.700789,-0.129546,0.068199,-0.058561
2024-01-01 00:00:01.510,-0.375035,1.021653,7.322821,-0.20664,0.598193,-0.147684
2024-01-01 00:00:01.520,-0.67819,0.275071,7.542161,0.01409,0.998125,-0.310789
2024-01-01 00:00:01.530,-0.302101,1.047695,7.655582,-0.060584,0.457901,0.007984
2024-01-01 00:00:01.540,-0.223428,0.859753,8.707823,-0.247632,0.944753,-0.251138
2024-01-01 00:00:01.550,-0.518134,0.691293,8.737354,-0.258707,0.55815,-0.068252
2024-01-01 00:00:01.560,0.443217,0.816976,8.590333,-0.03369,0.84326,-0.107176
2024-01-01 00:00:01.570,0.01467,1.226713,8.363752,0.062817,1.009681,0.093649
2024-01-01 00:00:01.580,-0.50926,1.596318,9.113711,0.300232,0.678689,-0.183337
2024-01-01 00:00:01.590,0.1965,1.29366,8.398507,0.280037,0.891784,0.049752
2024-01-01 00:00:01.600,-0.31537,1.017872,9.534767,-0.121625,0.745725,-0.119098
2024-01-01 00:00:01.610,0.36027,1.334853,10.131521,0.01972,1.020855,-0.054055
2024-01-01 00:00:01.620,0.549189,1.056755,9.158574,0.244384,0.893231,-0.506965
2024-01-01 00:00:01.630,-0.08489,0.980651,9.195445,0.374919,0.833191,0.367774
2024-01-01 00:00:01.640,0.597884,0.835428,11.094474,0.373784,1.188235,0.152104
2024-01-01 00:00:01.650,0.463126,0.647062,10.071463,0.153979,0.938858,-0.030128
2024-01-01 00:00:01.660,0.663829,1.044689,11.208416,-0.112915,0.570533,-0.068403
2024-01-01 00:00:01.670,1.096859,1.196336,10.667136,-0.018811,0.686888,0.041114
2024-01-01 00:00:01.680,0.403297,1.105406,10.822384,0.329056,0.650221,0.237981
2024-01-01 00:00:01.690,0.280818,0.993318,11.302655,0.376023,0.645969,-0.138579
2024-01-01 00:00:01.700,0.287894,0.816365,10.714911,0.044916,1.20983,0.138555
2024-01-01 00:00:01.710,0.36736,1.262838,11.402216,0.359352,0.620642,0.439701
2024-01-01 00:00:01.720,0.678566,0.663825,11.235608,0.5341,-0.035093,0.018055
2024-01-01 00:00:01.730,0.876518,1.268732,10.822376,0.115988,0.281199,0.213955
2024-01-01 00:00:01.740,0.904346,0.710611,11.823976,0.706918,-0.125763,0.545831
2024-01-01 00:00:01.750,1.146156,0.75933,11.569194,0.362493,0.213097,0.323261
2024-01-01 00:00:01.760,0.909003,0.517283,11.688771,0.796778,-0.264897,0.260076
2024-01-01 00:00:01.770,1.459596,0.777671,11.155758,0.373762,-0.051021,0.329558
2024-01-01 00:00:01.780,0.903163,1.19002,12.727633,0.274433,-0.279392,0.205415
2024-01-01 00:00:01.790,1.991241,1.020058,12.350183,0.439696,0.130116,0.47206
2024-01-01 00:00:01.800,1.299944,1.125498,12.398418,0.552725,-0.032713,0.228357
2024-01-01 00:00:01.810,0.821058,0.953925,11.684794,0.50078,-0.023828,0.005073
2024-01-01 00:00:01.820,0.784615,0.430257,10.871003,0.564361,-0.19181,0.250485
2024-01-01 00:00:01.830,1.364859,0.625017,12.850223,0.721355,-0.579322,0.173922
2024-01-01 00:00:01.840,1.152495,0.451966,11.681664,0.613582,-0.166013,0.286009
2024-01-01 00:00:01.850,1.513411,1.045907,11.228038,0.657345,0.124342,0.298074
2024-01-01 00:00:01.860,1.45999,0.247404,11.779658,0.263017,-0.313524,0.524775
2024-01-01 00:00:01.870,1.297706,0.833316,12.089357,0.803629,-0.579343,0.457146
2024-01-01 00:00:01.880,1.053605,0.790982,11.318907,0.69769,-0.883982,0.399485
2024-01-01 00:00:01.890,0.844481,1.02906,11.906786,1.135735,-0.804819,0.366139
2024-01-01 00:00:01.900,1.240961,0.313603,11.659837,0.510304,-0.511797,0.213769
2024-01-01 00:00:01.910,1.717377,0.605862,10.322293,0.304,-0.400158,0.05086
2024-01-01 00:00:01.920,1.51077,1.031711,10.384261,0.920297,-0.642458,0.399864
2024-01-01 00:00:01.930,1.015801,0.116434,11.113449,0.86093,-0.542552,0.506345
2024-01-01 00:00:01.940,1.526145,-0.204743,8.919281,0.529509,-0.595851,0.374558
2024-01-01 00:00:01.950,1.611843,-0.354587,10.146977,0.405287,-0.671593,0.313634
2024-01-01 00:00:01.960,1.176792,0.376552,9.254855,1.176958,-0.983353,0.46598
2024-01-01 00:00:01.970,1.546802,-0.449137,9.588177,1.149793,-0.790686,0.385633
2024-01-01 00:00:01.980,1.517913,-0.042997,9.491422,0.176824,-1.056523,0.652206
2024-01-01 00:00:01.990,1.09972,0.152676,9.262459,0.685316,-0.845098,0.584845
2024-01-01 00:00:02.000,1.62488,0.029785,8.958916,1.215864,-0.7665,0.543834
2024-01-01 00:00:02.010,1.693498,0.054656,8.463062,0.679504,-0.424017,0.51292
2024-01-01 00:00:02.020,1.87154,-0.053387,10.132754,0.673332,-1.160412,0.204467
2024-01-01 00:00:02.030,1.854237,0.216676,9.708106,0.721527,-0.696705,0.495557
2024-01-01 00:00:02.040,0.993853,-0.499331,7.854935,0.506996,-0.42581,0.450059
2024-01-01 00:00:02.050,1.136142,-0.463054,9.182735,0.354809,-0.58051,0.481465
2024-01-01 00:00:02.060,1.630716,-0.537671,7.91792,1.036712,-0.531313,0.460679
2024-01-01 00:00:02.070,1.614102,-0.102259,8.041373,0.304214,-0.557368,0.450388
2024-01-01 00:00:02.080,1.596144,-0.126095,7.77689,0.816953,-0.340086,0.782697
2024-01-01 00:00:02.090,2.743739,-0.305131,7.29986,0.965796,-0.892796,0.360648
2024-01-01 00:00:02.100,1.572336,-0.129052,8.065455,0.369207,-0.919815,0.506457
2024-01-01 00:00:02.110,1.745087,-0.880363,7.46663,0.487674,-0.523771,0.288722
2024-01-01 00:00:02.120,1.654564,-0.068817,7.020574,1.007649,-1.008094,0.470773
2024-01-01 00:00:02.130,1.519628,-0.153164,6.463377,0.822098,-0.102859,0.485335
2024-01-01 00:00:02.140,1.150271,-0.429654,6.601218,0.518007,-0.045513,0.390828
2024-01-01 00:00:02.150,1.493275,-0.154999,6.115847,0.955301,-0.397027,0.577757
2024-01-01 00:00:02.160,0.922264,-1.224653,6.965817,0.937769,-0.31759,0.185426
2024-01-01 00:00:02.170,1.073134,-0.922001,6.256361,0.683807,-0.177798,0.235189
2024-01-01 00:00:02.180,0.947618,-1.021072,6.739124,0.370958,-0.08053,0.329856
2024-01-01 00:00:02.190,1.105895,-0.618611,7.624797,0.471165,0.005014,0.419385
2024-01-01 00:00:02.200,1.845442,-1.183376,7.532404,0.623763,0.179701,0.302997
2024-01-01 00:00:02.210,0.338236,-0.673018,6.872066,0.4818,0.063659,0.457338
2024-01-01 00:00:02.220,1.1869,-0.519642,6.874326,0.739651,0.408625,0.153202
2024-01-01 00:00:02.230,0.335721,-0.751336,8.003731,0.097648,0.349254,0.068959
2024-01-01 00:00:02.240,0.687062,-0.902377,7.318672,0.080961,0.149491,0.273483
2024-01-01 00:00:02.250,1.184117,-1.309939,6.928912,0.473476,0.696609,0.202552
2024-01-01 00:00:02.260,0.774982,-1.292136,6.415859,0.278439,0.082615,0.282092
2024-01-01 00:00:02.270,0.323608,-0.686089,7.521213,0.217008,0.45587,0.182775
2024-01-01 00:00:02.280,0.397709,-0.848418,7.877929,-0.096379,0.774404,0.121815
2024-01-01 00:00:02.290,0.832167,-1.1135,7.203688,0.321851,0.402368,0.147242
2024-01-01 00:00:02.300,0.284001,-1.24503,7.851828,0.274614,0.707371,0.148229
2024-01-01 00:00:02.310,0.559875,-1.743526,7.642676,0.421564,0.808758,0.08335
2024-01-01 00:00:02.320,0.443798,-1.471406,7.901866,0.245412,0.496562,0.083623
2024-01-01 00:00:02.330,0.142859,-0.589307,6.803699,0.164672,0.727931,0.038373
2024-01-01 00:00:02.340,1.063795,-1.55765,8.226364,0.461405,0.736657,0.212077
2024-01-01 00:00:02.350,0.477296,-1.12563,9.064173,-0.191891,0.662772,0.097216
2024-01-01 00:00:02.360,-0.511762,-0.887369,8.371626,0.239184,1.396085,0.391056
2024-01-01 00:00:02.370,0.203605,-1.571362,8.9397,-0.344002,0.644762,0.060998
2024-01-01 00:00:02.380,-0.152185,-1.142903,8.689798,-0.167222,1.096464,-0.061445
2024-01-01 00:00:02.390,0.318762,-0.918514,9.500213,-0.292279,0.751485,0.406044
2024-01-01 00:00:02.400,-0.316032,-1.195852,9.379703,0.174872,0.577212,0.051737
2024-01-01 00:00:02.410,-0.137809,-0.336934,9.178231,-0.068433,0.868499,0.122478
2024-01-01 00:00:02.420,0.020245,-1.694031,10.621726,-0.086843,0.993768,0.047082
2024-01-01 00:00:02.430,0.087906,-0.869978,10.590528,-0.391408,1.045167,0.03609
2024-01-01 00:00:02.440,-0.693485,-1.231742,9.933311,-0.220727,1.184098,0.007446
2024-01-01 00:00:02.450,-0.448307,-0.938801,10.720633,-0.367523,1.503416,-0.253641
2024-01-01 00:00:02.460,-0.554798,-1.026646,10.91659,-0.111372,0.798551,-0.048489
2024-01-01 00:00:02.470,-0.673967,-1.365849,11.140687,-0.485267,0.534405,-0.317476
2024-01-01 00:00:02.480,0.116564,-1.062291,10.013203,0.065065,0.773312,-0.159846
2024-01-01 00:00:02.490,-0.414867,-1.671694,11.646536,-0.715754,0.549364,-0.257272
2024-01-01 00:00:02.500,-1.052323,-0.914956,10.916746,-0.527504,0.799414,-0.109317
2024-01-01 00:00:02.510,-0.343218,-0.98639,11.158922,0.064916,0.192116,-0.127073
2024-01-01 00:00:02.520,0.025859,-0.862479,12.9199,-0.491129,1.053774,-0.119
2024-01-01 00:00:02.530,-0.406847,-0.713247,11.73542,-0.738432,0.618124,-0.161761
2024-01-01 00:00:02.540,-1.350112,-0.895404,11.443604,-0.381676,-0.076973,-0.309246
2024-01-01 00:00:02.550,-1.036669,-0.934711,10.515688,-0.581348,0.104554,-0.270401
2024-01-01 00:00:02.560,-0.471279,-1.215388,12.550869,-0.696806,0.421868,-0.10586
2024-01-01 00:00:02.570,-1.208474,-1.13519,11.089551,-0.786389,0.44662,-0.096032
2024-01-01 00:00:02.580,-0.850055,-0.53453,11.305198,0.155884,-0.231785,-0.440122
2024-01-01 00:00:02.590,-0.777314,-0.427296,11.6871,-0.622054,0.197737,-0.509222
2024-01-01 00:00:02.600,-1.414279,-0.895945,12.645131,-1.062647,-0.534269,-0.399661
2024-01-01 00:00:02.610,-1.150416,-0.775749,12.272673,-0.229016,-0.136389,-0.144441
2024-01-01 00:00:02.620,-2.302003,-1.024747,11.726511,-0.469931,0.098042,-0.129117
2024-01-01 00:00:02.630,-1.562262,-0.364181,11.933665,-0.833604,-0.382647,-0.4597
2024-01-01 00:00:02.640,-1.326426,-0.477918,11.369835,-0.893561,-0.684779,-0.284044
2024-01-01 00:00:02.650,-1.707133,-0.055663,11.698354,-0.509183,-0.332866,-0.063611
2024-01-01 00:00:02.660,-0.729477,-0.86102,11.569421,-0.755501,-0.579681,-0.284589
2024-01-01 00:00:02.670,-1.829765,-0.669495,11.956065,-1.190409,-0.327537,-0.141232
2024-01-01 00:00:02.680,-1.509565,-0.444366,11.836618,-0.27615,-0.759677,-0.211671
2024-01-01 00:00:02.690,-1.334023,-0.276763,11.445792,-0.844382,-0.781586,-0.504472
2024-01-01 00:00:02.700,-0.89743,-0.491591,10.833064,-0.373774,-1.140111,-0.402331
2024-01-01 00:00:02.710,-1.924348,-0.644298,11.288304,-0.438683,-0.634873,-0.373932
2024-01-01 00:00:02.720,-1.032405,-0.072913,10.668302,-1.017992,-0.755885,-0.36825
2024-01-01 00:00:02.730,-1.451414,-0.075398,9.954054,-0.5177,-1.046617,-0.25055
2024-01-01 00:00:02.740,-1.811752,-0.520571,10.150211,-0.945914,-0.730288,-0.330224
2024-01-01 00:00:02.750,-1.31744,0.207374,10.23521,-1.255569,-0.546359,-0.834877
2024-01-01 00:00:02.760,-1.418164,0.19854,10.500964,-0.899661,-0.87643,-0.593682
2024-01-01 00:00:02.770,-1.704263,-0.065255,9.707123,-0.69749,-0.769807,-0.726557
2024-01-01 00:00:02.780,-1.473792,-0.034526,8.948006,-0.914736,-0.777645,-0.373221
2024-01-01 00:00:02.790,-1.634795,0.155042,9.447769,-0.876727,-1.150935,-0.36391
2024-01-01 00:00:02.800,-1.459591,-0.222439,9.282168,-0.513747,-0.334317,-0.357335
2024-01-01 00:00:02.810,-1.264639,0.092273,9.126116,-0.771448,-0.959528,-0.542875
2024-01-01 00:00:02.820,-0.936022,-0.51539,9.336119,-1.006093,-0.66592,-0.296512
2024-01-01 00:00:02.830,-1.916794,0.440122,9.200227,-0.615724,-0.620633,-0.288176
2024-01-01 00:00:02.840,-0.727128,-0.244677,8.12716,-0.736549,-0.825784,-0.581256
2024-01-01 00:00:02.850,-2.144766,0.721035,7.934932,-1.409887,-0.612233,-0.609649
2024-01-01 00:00:02.860,-1.50024,0.216793,7.528332,-0.664707,-0.670787,-0.385917
2024-01-01 00:00:02.870,-1.224541,0.297659,8.31929,-0.664951,-1.050423,-0.112687
2024-01-01 00:00:02.880,-1.313224,0.217609,8.575189,-0.747808,-0.738538,-0.121458
2024-01-01 00:00:02.890,-1.608446,0.363659,7.458306,-0.518676,-0.764,-0.28629
2024-01-01 00:00:02.900,-1.440119,0.919073,7.362854,-0.897312,-0.677905,-0.474106
2024-01-01 00:00:02.910,-1.514481,-0.210151,8.17803,-0.631572,-0.836589,-0.224822
2024-01-01 00:00:02.920,-1.520783,0.961128,7.537405,-1.092809,-0.173935,-0.418398
2024-01-01 00:00:02.930,-0.987681,0.720396,7.400411,-0.583583,0.002825,-0.457804
2024-01-01 00:00:02.940,-1.128631,0.296873,6.420308,-0.180314,-0.092838,-0.655885
2024-01-01 00:00:02.950,-1.462705,0.375355,7.377667,-0.89948,0.04272,-0.310026
2024-01-01 00:00:02.960,-0.870035,1.238754,6.437062,-0.821895,-0.296941,-0.410452
2024-01-01 00:00:02.970,-1.040212,0.48893,6.283109,-0.789646,-0.30441,-0.291607
2024-01-01 00:00:02.980,-0.824358,0.462126,6.690099,-0.558892,-0.273655,-0.6406
2024-01-01 00:00:02.990,-0.847863,1.183621,6.548071,-0.835483,0.148836,-0.259388
2024-01-01 00:00:03.000,-1.316098,0.976982,6.753306,-0.441861,0.111488,-0.638255
2024-01-01 00:00:03.010,-1.17814,0.625671,6.103042,-0.312064,0.101981,-0.098696
2024-01-01 00:00:03.020,-0.675127,1.002262,7.458665,-0.365976,0.510886,-0.171498
2024-01-01 00:00:03.030,-0.676202,0.658322,7.602395,-0.916681,0.352986,-0.279088
2024-01-01 00:00:03.040,-0.848919,1.323569,5.976783,-0.200063,0.105178,-0.14002
2024-01-01 00:00:03.050,-0.751007,1.337469,7.666023,-0.188096,0.205755,-0.35793
2024-01-01 00:00:03.060,-0.294128,1.202815,6.776029,-0.187825,0.605289,-0.186826
2024-01-01 00:00:03.070,-0.89645,1.174249,7.800422,-0.27447,0.751338,-0.064624
2024-01-01 00:00:03.080,-0.444938,1.614993,7.411357,-0.284378,0.681895,-0.633856
2024-01-01 00:00:03.090,-0.653224,1.105743,7.596655,-0.052546,1.067896,-0.222405
2024-01-01 00:00:03.100,-0.603776,0.768762,7.621941,0.199498,1.048444,-0.144087
2024-01-01 00:00:03.110,-0.087329,1.273911,8.543538,-0.489941,0.792004,-0.155284
2024-01-01 00:00:03.120,-0.126587,1.778862,7.357472,0.04794,0.509926,0.10777
2024-01-01 00:00:03.130,-0.073692,0.860811,8.544185,-0.212712,0.42544,-0.264164
2024-01-01 00:00:03.140,0.156115,1.067185,8.993424,-0.192846,0.68479,-0.173388
2024-01-01 00:00:03.150,-0.235367,1.30912,8.965588,-0.513583,0.993792,-0.352105
2024-01-01 00:00:03.160,0.054426,1.174741,10.039043,-0.169468,1.28101,0.177408
2024-01-01 00:00:03.170,-0.234105,0.901101,8.662175,-0.316256,0.942459,-0.070413
2024-01-01 00:00:03.180,0.046888,1.535375,9.674834,-0.151468,1.138832,-0.083514
2024-01-01 00:00:03.190,-0.053077,1.895997,9.286562,-0.278561,0.78863,-0.009879
2024-01-01 00:00:03.200,0.085478,1.258131,10.220036,-0.084745,1.003686,0.109176
2024-01-01 00:00:03.210,0.31881,0.925519,9.73312,-0.042592,1.046613,0.081573
2024-01-01 00:00:03.220,-0.117068,0.727643,9.717427,0.114487,0.333443,0.442332
2024-01-01 00:00:03.230,0.960187,1.263468,10.839032,-0.282167,0.707415,0.128851
2024-01-01 00:00:03.240,-0.066066,1.509143,10.035612,-0.208825,1.025606,0.006491
2024-01-01 00:00:03.250,-0.08118,1.310608,9.70845,0.273831,0.829319,0.007473
2024-01-01 00:00:03.260,0.806337,1.155604,10.373746,0.014506,0.429378,0.048019
2024-01-01 00:00:03.270,0.734671,0.966019,11.163058,0.51268,0.084266,-0.103252
2024-01-01 00:00:03.280,0.731912,0.799854,11.743785,0.330168,0.559352,0.142905
2024-01-01 00:00:03.290,0.788476,1.360883,11.184889,0.45492,0.587867,0.269135
2024-01-01 00:00:03.300,0.618472,1.365823,11.983509,0.684811,0.335993,0.074064
2024-01-01 00:00:03.310,0.361958,0.607513,10.63453,0.283104,0.540504,0.059159
2024-01-01 00:00:03.320,0.754719,1.526064,11.248287,0.244745,0.575959,0.421575
2024-01-01 00:00:03.330,0.542241,1.197587,11.430767,0.633525,0.558878,-0.006173
2024-01-01 00:00:03.340,1.170393,1.419908,11.610118,0.569566,-0.258355,-0.089079
2024-01-01 00:00:03.350,0.826199,0.570504,11.788743,0.421257,-0.060578,0.06111
2024-01-01 00:00:03.360,0.635952,0.535,12.17715,0.841131,0.127546,0.015569
2024-01-01 00:00:03.370,0.858164,0.870196,11.592117,0.464618,0.28119,0.316774
2024-01-01 00:00:03.380,1.159443,1.034444,11.937547,0.549482,0.194044,0.216539
2024-01-01 00:00:03.390,0.860308,1.389868,11.845141,0.569365,0.122847,0.249077
2024-01-01 00:00:03.400,0.810889,1.028816,11.3541,0.352307,-0.157861,0.465918
2024-01-01 00:00:03.410,1.223309,0.708954,11.778746,0.626339,-0.210417,0.199771
2024-01-01 00:00:03.420,1.261344,0.437401,11.724855,0.97618,-0.376296,0.429758
2024-01-01 00:00:03.430,1.03394,1.07671,11.66059,0.757306,-0.066667,0.54973
2024-01-01 00:00:03.440,1.080393,0.379599,11.701606,0.671903,-0.551735,0.263719
2024-01-01 00:00:03.450,1.35843,1.117815,11.644168,0.640738,-0.170007,0.451143
2024-01-01 00:00:03.460,0.800359,0.503247,11.269354,0.779884,-0.389086,0.312311
2024-01-01 00:00:03.470,0.842525,1.024113,12.09843,0.899515,-0.508108,0.494651
2024-01-01 00:00:03.480,1.109561,0.708145,10.633969,0.878185,-0.713743,0.127214
2024-01-01 00:00:03.490,1.310079,0.420112,10.747574,0.655586,-0.937763,0.122449
2024-01-01 00:00:03.500,1.515226,0.261423,12.529013,0.83128,-0.80639,0.316352
2024-01-01 00:00:03.510,1.942224,0.270353,10.274959,0.880438,-0.768582,0.246888
2024-01-01 00:00:03.520,1.743262,0.455926,9.937961,0.517844,-1.315687,0.307315
2024-01-01 00:00:03.530,1.402096,0.304876,10.915024,0.819698,-0.805636,0.355891
2024-01-01 00:00:03.540,1.464152,0.057447,9.190109,0.244105,-0.553386,0.500218
2024-01-01 00:00:03.550,1.130376,0.139398,10.018619,0.910639,-0.665986,0.333854
2024-01-01 00:00:03.560,1.482938,0.165863,11.138896,0.959442,-0.950149,0.273599
2024-01-01 00:00:03.570,1.394234,-0.543348,8.916001,0.984361,-0.82755,0.34601
2024-01-01 00:00:03.580,1.611746,0.185558,8.480205,0.700595,-0.986309,0.284307
2024-01-01 00:00:03.590,1.210469,-0.293049,8.549064,0.877261,-0.812809,0.259899
2024-01-01 00:00:03.600,1.680651,-0.392374,9.671018,1.155391,-0.462434,0.157749
2024-01-01 00:00:03.610,2.031894,-0.599746,9.60005,1.151008,-0.597545,0.409205
2024-01-01 00:00:03.620,1.451607,-0.678735,8.506411,0.787199,-0.696475,0.31194
2024-01-01 00:00:03.630,1.6222,-0.594008,8.974619,0.825017,-0.931773,0.540035
2024-01-01 00:00:03.640,1.712783,-0.446596,9.178791,1.062385,-0.597934,0.175219
2024-01-01 00:00:03.650,1.318155,0.305935,9.218414,0.40271,-1.179135,0.307643
2024-01-01 00:00:03.660,1.522103,-0.483526,7.928146,0.689189,-0.787807,0.656915
2024-01-01 00:00:03.670,1.430929,-0.317651,6.634177,1.094704,-0.5416,0.239464
2024-01-01 00:00:03.680,1.441347,-0.29547,7.293971,0.994286,-0.460971,0.339763
2024-01-01 00:00:03.690,1.115064,-0.42029,7.36625,0.831312,-0.433148,0.187121
2024-01-01 00:00:03.700,1.370505,-0.526124,7.325081,0.349903,-0.47773,0.160916
2024-01-01 00:00:03.710,1.510424,-0.903981,7.242474,0.700122,-0.54777,0.588396
2024-01-01 00:00:03.720,1.816151,-0.151772,7.852035,0.550255,-0.308654,0.374523
2024-01-01 00:00:03.730,1.614093,-0.085638,7.841651,0.764545,-0.622925,0.360945
2024-01-01 00:00:03.740,2.000078,-1.172367,6.964186,0.462444,-0.535055,0.077943
2024-01-01 00:00:03.750,0.944076,-1.013517,7.594992,0.390314,-0.245621,0.377184
2024-01-01 00:00:03.760,1.482263,-0.827894,7.134508,0.111491,-0.153306,0.487467
2024-01-01 00:00:03.770,1.203599,-1.069802,6.935318,0.913147,-0.587341,0.476269
2024-01-01 00:00:03.780,1.866573,-0.663931,7.375798,0.4868,0.049329,0.393621
2024-01-01 00:00:03.790,0.776244,-1.068218,6.909749,0.604165,0.195604,0.113017
2024-01-01 00:00:03.800,0.72261,-0.232917,8.010116,0.54158,0.049965,0.318038
2024-01-01 00:00:03.810,0.762513,-0.556599,6.110949,0.251702,0.729338,0.359418
2024-01-01 00:00:03.820,0.183218,-0.879904,6.657785,0.179411,0.030581,-0.022078
2024-01-01 00:00:03.830,0.695412,-0.664031,6.925654,0.217699,0.175389,0.066322
2024-01-01 00:00:03.840,0.565211,-0.667299,7.305771,0.262358,0.229592,0.354799
2024-01-01 00:00:03.850,0.833738,-1.193647,7.844577,0.508238,0.369976,0.3397
2024-01-01 00:00:03.860,0.849697,-1.293134,7.230686,0.190448,0.365093,-0.037599
2024-01-01 00:00:03.870,1.334592,-1.047006,6.571964,0.798186,0.15105,0.300035
2024-01-01 00:00:03.880,0.957379,-0.832479,7.940154,0.589977,0.418478,0.18089
2024-01-01 00:00:03.890,0.368645,-1.068081,8.026316,0.506389,0.579631,0.269301
2024-01-01 00:00:03.900,0.201062,-1.600007,6.688287,0.245022,0.956356,0.04229
2024-01-01 00:00:03.910,0.631825,-1.383117,7.909441,0.623719,1.240926,0.219352
2024-01-01 00:00:03.920,-0.058994,-1.178052,7.201221,0.160478,1.061106,0.234064
2024-01-01 00:00:03.930,0.986907,-1.190359,7.882529,0.176663,0.565757,0.039539
2024-01-01 00:00:03.940,0.700973,-0.585885,7.930785,0.196184,0.613305,0.079508
2024-01-01 00:00:03.950,0.065783,-1.601606,9.057512,0.29812,0.770201,-0.035946
2024-01-01 00:00:03.960,-0.428133,-1.040457,8.866456,0.250674,1.273926,0.29347
2024-01-01 00:00:03.970,0.586523,-0.749876,8.288428,-0.058692,0.799053,0.012004
2024-01-01 00:00:03.980,0.013607,-0.517796,9.675164,-0.10461,0.515945,-0.123985
2024-01-01 00:00:03.990,0.427878,-1.321312,8.599267,0.157118,0.724684,-0.108803
2024-01-01 00:00:04.000,-0.622454,-1.051465,9.766046,0.14446,1.03613,0.001841
2024-01-01 00:00:04.010,-0.333132,-1.025008,9.33207,-0.164125,1.010989,0.080106
2024-01-01 00:00:04.020,-0.18027,-1.132479,9.771406,-0.49392,0.77489,-0.248936
2024-01-01 00:00:04.030,-0.224135,-1.214119,10.438895,-0.180137,0.977124,0.212995
2024-01-01 00:00:04.040,-0.456201,-1.045178,10.632454,-0.003414,0.214305,-0.033346
2024-01-01 00:00:04.050,-0.138317,-1.925326,11.259053,0.26132,0.780032,-0.025049
2024-01-01 00:00:04.060,-0.787066,-0.948906,10.649391,-0.519969,0.936048,-0.124818
2024-01-01 00:00:04.070,-0.519675,-1.10176,11.025877,-0.357225,0.474994,-0.122402
2024-01-01 00:00:04.080,-0.483454,-1.190675,10.770053,-0.377648,0.432223,-0.162391
2024-01-01 00:00:04.090,-0.400404,-0.492451,11.25421,0.029374,0.128818,-0.002119
2024-01-01 00:00:04.100,-0.385392,-1.289852,11.528081,-0.347113,0.943335,-0.170378
2024-01-01 00:00:04.110,-1.081099,-1.18747,11.352661,-0.593484,0.312871,-0.068269
2024-01-01 00:00:04.120,-1.276365,-0.446603,10.522411,-0.254686,0.497162,-0.262257
2024-01-01 00:00:04.130,-0.343042,-1.269591,11.791231,-0.522615,0.529164,-0.181382
2024-01-01 00:00:04.140,-0.723498,-1.159329,11.89,-0.753994,0.695141,-0.344537
2024-01-01 00:00:04.150,-1.150055,-1.011183,11.381586,-0.696839,0.215622,-0.054343
2024-01-01 00:00:04.160,-0.392082,-0.686136,11.10067,-0.065148,0.054638,-0.374392
2024-01-01 00:00:04.170,-0.93995,-0.845842,12.65511,-0.426847,0.166985,-0.310197
2024-01-01 00:00:04.180,-0.611613,-1.264389,12.134633,-0.519389,0.378195,-0.320409
2024-01-01 00:00:04.190,-1.043078,-1.003312,11.743842,-0.631385,-0.052266,-0.337549
2024-01-01 00:00:04.200,-0.386136,-0.991619,11.23447,-0.517575,-0.315278,-0.186932
2024-01-01 00:00:04.210,-0.532001,-0.797075,11.382407,-0.541338,-0.528113,-0.353197
2024-01-01 00:00:04.220,-1.270702,-0.609453,12.51012,-0.558192,-0.513725,-0.106529
2024-01-01 00:00:04.230,-0.878874,-0.573898,11.813675,-0.621382,-0.056488,-0.447818
2024-01-01 00:00:04.240,-1.026512,-1.193232,11.364724,-0.450744,-0.415238,-0.308565
2024-01-01 00:00:04.250,-0.804901,-0.301292,11.86322,-0.678982,-0.54738,-0.458747
2024-01-01 00:00:04.260,-1.651183,-0.503787,11.036597,-0.944996,-0.632458,-0.28711
2024-01-01 00:00:04.270,-1.100843,-0.122383,12.198498,-0.868285,-0.48736,-0.359982
2024-01-01 00:00:04.280,-0.995934,-0.361835,11.993175,-1.223492,-0.620488,-0.387628
2024-01-01 00:00:04.290,-2.005246,-0.121281,10.856971,-0.234462,-0.677434,-0.192312
2024-01-01 00:00:04.300,-1.824977,-0.267598,10.621461,-0.536757,-0.316571,-0.474374
2024-01-01 00:00:04.310,-2.143529,0.041054,9.370998,-0.970077,-0.310095,-0.293302
2024-01-01 00:00:04.320,-1.540836,-0.160827,9.830911,-0.841951,-1.133496,-0.501089
2024-01-01 00:00:04.330,-1.209906,-0.301074,9.735973,-0.938444,-0.680953,-0.372709
2024-01-01 00:00:04.340,-0.947458,0.456255,10.367101,-0.400114,-0.984197,-0.572212
2024-01-01 00:00:04.350,-1.457304,0.08781,9.927662,-1.146029,-0.874278,-0.494907
2024-01-01 00:00:04.360,-0.920875,0.040074,9.176931,-0.766523,-0.752095,-0.409892
2024-01-01 00:00:04.370,-1.979268,-0.467885,9.568611,-0.825123,-0.894652,-0.126798
2024-01-01 00:00:04.380,-2.095439,-0.424298,9.805382,-0.592893,-0.790698,-0.384681
2024-01-01 00:00:04.390,-1.519395,0.097255,9.620978,-0.825978,-0.681652,-0.151787
2024-01-01 00:00:04.400,-1.363903,0.100329,8.089311,-1.23866,-0.772564,-0.366505
2024-01-01 00:00:04.410,-1.505819,-0.080421,8.86851,-0.85978,-0.998985,-0.456563
2024-01-01 00:00:04.420,-2.211714,0.193094,7.985815,-1.036699,-0.980454,-0.165926
2024-01-01 00:00:04.430,-1.510727,0.674136,9.054064,-0.76919,-1.163855,-0.32899
2024-01-01 00:00:04.440,-1.925231,0.452612,8.805888,-0.424745,-0.9932,-0.488053
2024-01-01 00:00:04.450,-1.221136,-0.052247,7.703357,-1.211135,-0.26016,-0.317553
2024-01-01 00:00:04.460,-1.311811,0.302218,7.605881,-0.96812,-0.914982,-0.427921
2024-01-01 00:00:04.470,-1.751444,0.139275,7.611768,-0.896832,-0.977185,-0.677685
2024-01-01 00:00:04.480,-1.582499,0.308959,6.474014,-0.843486,-0.55651,-0.233643
2024-01-01 00:00:04.490,-1.751356,0.345029,7.755689,-0.551306,-0.617789,-0.203928
2024-01-01 00:00:04.500,-1.378415,0.368938,7.289852,-0.76684,-0.589143,-0.086036
2024-01-01 00:00:04.510,-0.995919,0.178014,7.854487,-0.605499,-0.134681,-0.291404
2024-01-01 00:00:04.520,-1.646903,0.557722,6.610442,-0.850789,-0.29334,-0.384482
2024-01-01 00:00:04.530,-1.095144,0.468376,6.781088,-0.620684,-0.50413,-0.213834
2024-01-01 00:00:04.540,-1.42484,-0.202724,6.213994,-0.466484,-0.416457,-0.202994
2024-01-01 00:00:04.550,-1.482524,1.330507,6.425627,-0.825752,-0.372767,-0.075596
2024-01-01 00:00:04.560,-1.20638,1.078643,6.278129,-0.428084,0.036314,-0.318406
2024-01-01 00:00:04.570,-1.493342,0.675352,7.441374,-0.590111,-0.193527,-0.326439
2024-01-01 00:00:04.580,-1.28512,0.828897,6.490266,-0.320684,-0.498176,-0.398356
2024-01-01 00:00:04.590,-1.469242,0.505487,6.938798,-0.610347,0.004944,-0.199377
2024-01-01 00:00:04.600,-0.319346,1.398104,6.672768,-0.441756,-0.300427,-0.500773
2024-01-01 00:00:04.610,-0.950111,1.489598,6.21109,-0.52346,0.696174,-0.140241
2024-01-01 00:00:04.620,-1.161319,0.997017,6.859094,-0.512808,-0.025945,-0.156202
2024-01-01 00:00:04.630,-0.794063,1.285193,7.33852,-0.398711,0.239026,-0.143961
2024-01-01 00:00:04.640,-0.859464,1.057328,6.416736,-0.303211,0.40633,-0.197973
2024-01-01 00:00:04.650,-0.847411,0.628775,7.612195,-0.723096,0.329783,0.024594
2024-01-01 00:00:04.660,-0.503841,0.9297,6.799672,-0.024951,0.387117,-0.060881
2024-01-01 00:00:04.670,-0.401285,1.114647,7.114249,-0.820336,0.61991,-0.268772
2024-01-01 00:00:04.680,-0.798669,0.958858,7.796974,-0.498133,0.947645,-0.251842
2024-01-01 00:00:04.690,-0.76016,1.048083,7.276978,-0.3215,0.806098,-0.280917
2024-01-01 00:00:04.700,-0.599656,1.102989,7.810016,-0.165385,1.028171,-0.051544
2024-01-01 00:00:04.710,-1.253044,1.121123,7.77355,0.155445,0.437127,-0.26932
2024-01-01 00:00:04.720,-0.920978,1.174265,8.183887,-0.672926,0.81403,0.058332
2024-01-01 00:00:04.730,0.14506,0.851811,6.977226,-0.304708,0.804855,0.109554
2024-01-01 00:00:04.740,0.300225,0.964479,7.460921,-0.678649,0.88042,-0.205323
2024-01-01 00:00:04.750,-0.304416,0.801972,8.992238,-0.107963,1.158396,-0.085767
2024-01-01 00:00:04.760,0.043138,1.486613,9.414558,-0.016696,0.775784,-0.039815
2024-01-01 00:00:04.770,0.009123,0.565646,8.537253,0.344464,0.741097,0.10598
2024-01-01 00:00:04.780,1.03679,1.545633,9.099775,0.008389,0.982236,0.230517
2024-01-01 00:00:04.790,0.410094,1.615816,9.5929,0.270736,0.405198,-0.247959
2024-01-01 00:00:04.800,0.032504,1.107752,10.00851,0.187172,0.786275,-0.027121
2024-01-01 00:00:04.810,-0.198252,0.414103,8.70686,-0.036179,0.802437,-0.003586
2024-01-01 00:00:04.820,-0.367368,1.081435,9.526799,-0.2483,0.591213,-0.15813
2024-01-01 00:00:04.830,0.3245,1.163513,10.019249,0.203837,1.065792,-0.005223
2024-01-01 00:00:04.840,0.046571,0.870695,10.771782,-0.207002,0.511224,0.147177
2024-01-01 00:00:04.850,-0.128971,1.008595,11.935787,0.520504,0.713256,0.056549
2024-01-01 00:00:04.860,0.199469,1.609702,10.605455,0.186561,0.786323,-0.118155
2024-01-01 00:00:04.870,0.103519,1.335821,10.117792,0.555894,1.012785,0.559662
2024-01-01 00:00:04.880,1.128105,0.842911,11.264217,0.166669,0.62899,0.183288
2024-01-01 00:00:04.890,0.900891,0.623201,11.910485,0.383115,0.81896,0.174705
2024-01-01 00:00:04.900,0.643319,0.984866,11.373069,0.396929,0.709737,0.007607
2024-01-01 00:00:04.910,1.216881,0.997747,10.932679,0.361486,0.511804,0.225479
2024-01-01 00:00:04.920,0.777687,1.187809,12.063129,0.292159,0.151933,0.17553
2024-01-01 00:00:04.930,0.499702,0.85391,11.99265,0.525395,0.006406,-0.069638
2024-01-01 00:00:04.940,1.383546,1.141937,11.140828,0.222034,0.330155,0.066249
2024-01-01 00:00:04.950,1.087055,1.541483,11.977952,0.176807,0.104451,0.358822
2024-01-01 00:00:04.960,0.58199,1.176547,12.364794,0.814721,0.405048,0.54361
2024-01-01 00:00:04.970,0.923533,0.886986,12.499302,0.709873,0.295718,0.319115
2024-01-01 00:00:04.980,0.727275,0.814585,11.830312,0.567802,-0.003555,0.441127
2024-01-01 00:00:04.990,0.591749,0.729298,11.672033,0.990007,-0.313751,0.263498
2024-01-01 00:00:05.000,1.44021,1.155965,12.530603,0.528284,0.036592,0.284631
2024-01-01 00:00:05.010,1.822933,0.577809,11.161232,0.946482,-0.411784,0.47155
2024-01-01 00:00:05.020,0.701938,0.742612,12.024027,0.679326,-0.412143,0.567133
2024-01-01 00:00:05.030,1.423427,0.706317,10.970324,0.397886,-0.531231,0.522201
2024-01-01 00:00:05.040,1.031714,0.501263,12.236235,1.133711,-0.383077,0.175896
2024-01-01 00:00:05.050,1.120043,0.199889,11.420656,0.935964,-0.115818,0.334099
2024-01-01 00:00:05.060,1.112296,0.667403,12.159013,0.67355,-0.46701,0.393531
2024-01-01 00:00:05.070,1.044288,0.510207,11.617317,0.900025,-0.631051,0.320164
2024-01-01 00:00:05.080,1.388631,0.635759,10.54776,0.63062,-0.952921,0.423952
2024-01-01 00:00:05.090,1.103653,0.282032,11.866096,0.951013,-0.481214,0.494949
2024-01-01 00:00:05.100,1.50982,0.764098,11.78714,0.156982,-0.858236,0.527798
2024-01-01 00:00:05.110,1.416058,0.089942,11.260921,0.509658,-0.673534,0.635185
2024-01-01 00:00:05.120,1.366267,0.821162,10.189785,1.018094,-0.826889,0.337224
2024-01-01 00:00:05.130,1.146262,-0.262642,10.265667,0.718338,-0.559634,0.185771
2024-01-01 00:00:05.140,1.27378,0.345774,10.33268,0.838899,-0.834564,0.447242
2024-01-01 00:00:05.150,1.74949,0.311331,9.678903,0.455358,-0.831133,0.678599
2024-01-01 00:00:05.160,1.667574,-0.116867,10.805669,1.257835,-0.711049,0.326388
2024-01-01 00:00:05.170,1.154946,0.202027,9.760062,1.096081,-0.316676,0.502251
2024-01-01 00:00:05.180,1.534372,0.411358,7.99772,0.749619,-0.626995,0.504257
2024-01-01 00:00:05.190,1.762782,-0.684793,9.474376,0.698718,-0.871691,0.428662
2024-01-01 00:00:05.200,0.913371,0.083857,8.899922,1.056154,-0.843906,0.400415
2024-01-01 00:00:05.210,1.683382,-0.862063,8.855605,1.291994,-0.96585,0.259674
2024-01-01 00:00:05.220,1.254517,-0.450719,8.502412,1.031205,-1.05689,0.054133
2024-01-01 00:00:05.230,1.677069,0.281042,8.961489,1.330875,-0.937255,0.227185
2024-01-01 00:00:05.240,1.198852,-0.428609,8.951186,0.551275,-0.966828,0.332386
2024-01-01 00:00:05.250,0.820645,-0.652211,8.315195,0.569742,-0.580375,0.551908
2024-01-01 00:00:05.260,0.866823,-0.404936,7.804557,0.468878,-0.976831,0.367588
2024-01-01 00:00:05.270,1.435175,0.229846,7.808652,0.866891,-0.33665,0.300371
2024-01-01 00:00:05.280,1.488931,-0.984397,7.691915,0.789516,-0.438709,0.23916
2024-01-01 00:00:05.290,1.059033,-0.793977,7.100015,0.695636,-0.574477,0.465333
2024-01-01 00:00:05.300,1.574434,-0.072305,7.731315,0.922809,-0.528812,0.564001
2024-01-01 00:00:05.310,0.742684,-0.006365,7.549613,1.01433,-0.614222,0.51264
2024-01-01 00:00:05.320,1.272323,-0.635972,8.04037,0.309492,-0.350448,0.436376
2024-01-01 00:00:05.330,0.840823,-1.016988,7.793603,0.525252,-0.086421,0.115906
2024-01-01 00:00:05.340,1.003802,-0.055849,6.650124,0.862073,-0.472487,0.275768
2024-01-01 00:00:05.350,1.213891,-0.244537,7.417018,0.521626,-0.61646,0.611376
2024-01-01 00:00:05.360,0.859657,-0.556332,6.396341,0.419543,0.007723,0.47784
2024-01-01 00:00:05.370,0.987908,-1.039706,7.270831,0.853302,-0.020917,0.068708
2024-01-01 00:00:05.380,1.434665,-0.845429,6.588019,0.254938,-0.315353,0.280318
2024-01-01 00:00:05.390,0.838833,-0.912275,6.308941,0.479669,-0.151728,0.331997
2024-01-01 00:00:05.400,1.289906,-0.797018,7.040816,0.614115,-0.116428,0.151653
2024-01-01 00:00:05.410,0.557138,-0.491691,5.446232,0.364564,-0.016667,-0.092371
2024-01-01 00:00:05.420,1.091612,-0.692446,5.999866,0.679085,0.148644,0.256472
2024-01-01 00:00:05.430,1.36297,-1.307282,6.925863,0.315606,0.226604,0.110749
2024-01-01 00:00:05.440,-0.055745,-0.597392,7.143953,0.783798,0.1924,0.098245
2024-01-01 00:00:05.450,0.480073,-0.941107,6.984692,0.373356,0.225214,0.149194
2024-01-01 00:00:05.460,0.909439,-0.852028,6.421862,0.545132,0.414644,0.168606
2024-01-01 00:00:05.470,0.583779,-0.639646,6.956336,0.535757,0.567924,0.173263
2024-01-01 00:00:05.480,0.731112,-1.432869,7.749141,0.163761,0.497826,0.027725
2024-01-01 00:00:05.490,0.335251,-1.128224,7.993137,-0.221827,0.913891,0.112741
2024-01-01 00:00:05.500,0.521538,-1.293263,7.813934,0.352179,0.7947,-0.132618
2024-01-01 00:00:05.510,0.38057,-1.618776,8.618406,0.250102,0.309281,0.162671
2024-01-01 00:00:05.520,0.786931,-1.057217,8.368609,0.340667,0.872857,-0.327586
2024-01-01 00:00:05.530,0.409818,-0.418774,7.914397,0.114446,0.923644,0.042115
2024-01-01 00:00:05.540,0.380999,-1.733457,8.353153,0.032573,0.68912,0.207968
2024-01-01 00:00:05.550,0.06034,-1.19848,7.923131,0.611183,0.444604,-0.104369
2024-01-01 00:00:05.560,-0.024823,-1.002152,8.826696,-0.290308,0.835947,0.146355
2024-01-01 00:00:05.570,-0.06444,-1.161059,9.692292,0.229864,0.84236,0.196548
2024-01-01 00:00:05.580,0.165995,-1.23373,9.653804,-0.128751,0.568999,-0.488735
2024-01-01 00:00:05.590,-0.17847,-1.589507,10.244835,-0.100545,0.486463,-0.031005
2024-01-01 00:00:05.600,0.011282,-1.127995,9.503335,-0.12735,0.821973,-0.455403
2024-01-01 00:00:05.610,0.577377,-1.421093,10.604609,-0.280332,0.774954,-0.057468
2024-01-01 00:00:05.620,0.097237,-1.845422,9.949206,0.032056,0.713103,-0.056451
2024-01-01 00:00:05.630,-0.380086,-0.822607,11.051915,0.205806,0.775696,-0.443309
2024-01-01 00:00:05.640,0.096538,-0.884176,10.412132,-0.055236,0.495046,0.202356
2024-01-01 00:00:05.650,-0.524119,-1.145085,10.988206,-0.177511,0.631449,-0.058776
2024-01-01 00:00:05.660,-1.151452,-1.078953,11.577996,-0.480268,0.838311,-0.244182
2024-01-01 00:00:05.670,-0.847075,-0.810693,10.819096,-0.134391,0.577942,0.088008
2024-01-01 00:00:05.680,-1.204392,-1.049242,11.19475,0.24596,0.203772,-0.415906
2024-01-01 00:00:05.690,-0.727162,-0.827164,11.922099,-0.417378,0.456067,-0.345478
2024-01-01 00:00:05.700,-0.651267,-1.167736,11.267233,-0.444777,0.255617,-0.520309
2024-01-01 00:00:05.710,-0.123522,-0.663347,10.728841,-0.519086,0.535613,0.08075
2024-01-01 00:00:05.720,-0.647311,-0.937518,12.736005,-0.528612,0.491305,-0.153278
2024-01-01 00:00:05.730,-0.8887,-0.950746,11.387441,-1.119399,-0.062883,-0.117627
2024-01-01 00:00:05.740,-0.570743,-1.363625,11.80748,-0.35796,0.479598,-0.184459
2024-01-01 00:00:05.750,-1.682618,-0.868641,12.415751,-0.696039,-0.051964,-0.15626
2024-01-01 00:00:05.760,-0.872532,-1.174955,11.490119,-0.911898,0.550714,-0.242954
2024-01-01 00:00:05.770,-0.729991,-1.08606,11.30009,-0.344926,0.082562,-0.225973
2024-01-01 00:00:05.780,-1.560545,-1.107007,12.008198,-0.826792,-0.283591,-0.262003
2024-01-01 00:00:05.790,-0.684355,-1.148747,10.881187,-0.663157,-0.324412,-0.380534
2024-01-01 00:00:05.800,-1.006142,-0.156642,11.692285,-0.233184,-0.018573,-0.306891
2024-01-01 00:00:05.810,-1.30817,-0.358638,11.953281,-0.972474,-0.269449,-0.269046
2024-01-01 00:00:05.820,-0.977747,-0.144721,11.622735,-1.022734,-0.26075,-0.30321
2024-01-01 00:00:05.830,-0.439019,-1.049373,10.860124,-0.59068,0.103112,-0.550669
2024-01-01 00:00:05.840,-1.202738,-0.621743,12.509133,-0.388037,-0.53653,-0.539452
2024-01-01 00:00:05.850,-1.210179,-0.99079,11.59857,-1.085349,-0.406122,-0.183455
2024-01-01 00:00:05.860,-1.486487,-0.77013,12.224585,-0.605123,-0.122935,-0.399572
2024-01-01 00:00:05.870,-1.649756,-0.794673,11.177442,-0.575982,-0.464088,-0.272907
2024-01-01 00:00:05.880,-1.086195,-0.104368,10.707375,-1.24909,-0.983892,-0.530968
2024-01-01 00:00:05.890,-1.69881,-0.551382,11.19906,-0.546605,-0.502809,-0.594087
2024-01-01 00:00:05.900,-1.394332,-0.067598,10.781535,-0.537851,-0.962922,-0.505041
2024-01-01 00:00:05.910,-1.604558,-0.161874,10.092171,-0.844548,-0.359318,-0.416686
2024-01-01 00:00:05.920,-1.285505,0.393516,11.379551,-0.461926,-0.951177,-0.487277
2024-01-01 00:00:05.930,-1.349883,-0.695413,10.052705,-0.498107,-0.032902,-0.197021
2024-01-01 00:00:05.940,-1.114769,0.172576,9.200237,-0.762438,-0.433449,-0.36718
2024-01-01 00:00:05.950,-1.665365,0.185442,10.755083,-0.905853,-1.019499,-0.119155
2024-01-01 00:00:05.960,-1.587962,-0.403554,9.555377,-1.039744,-0.830309,-0.337607
2024-01-01 00:00:05.970,-1.840404,0.237722,9.303719,-0.808237,-0.65669,-0.761306
2024-01-01 00:00:05.980,-1.655349,0.083648,8.470679,-0.657478,-0.653736,-0.241553
2024-01-01 00:00:05.990,-1.367474,-0.03819,10.202336,-0.880793,-0.73835,-0.626307
2024-01-01 00:00:06.000,-1.231942,-0.169925,8.339556,-1.347716,-0.529914,-0.36459
2024-01-01 00:00:06.010,-1.814684,-0.091395,8.88686,-0.478516,-0.862491,-0.51405
2024-01-01 00:00:06.020,-1.180289,0.786172,9.165792,-0.744258,-0.907067,-0.0745
2024-01-01 00:00:06.030,-1.000601,0.218057,8.70931,-0.881612,-0.880687,-0.177413
2024-01-01 00:00:06.040,-1.318508,0.498778,8.263604,-0.566089,-0.55304,-0.501463
2024-01-01 00:00:06.050,-0.7922,0.072746,7.186201,-0.391682,-0.645242,-0.405525
2024-01-01 00:00:06.060,-1.703526,0.121457,7.510208,-1.464584,-0.628053,-0.345363
2024-01-01 00:00:06.070,-1.849729,0.724854,7.901055,-0.64562,-0.462059,-0.247581
2024-01-01 00:00:06.080,-2.015859,0.03961,7.216773,-1.099759,-1.129526,-0.367176
2024-01-01 00:00:06.090,-0.846739,0.363455,7.624184,-0.606078,-0.491319,-0.519162
2024-01-01 00:00:06.100,-1.116249,0.541006,7.761429,-0.685499,-0.46274,-0.466374
2024-01-01 00:00:06.110,-1.337569,0.606166,7.802277,-0.544063,-0.04552,-0.352169
2024-01-01 00:00:06.120,-1.190919,0.560095,6.497932,-0.81223,-0.787339,-0.15854
2024-01-01 00:00:06.130,-1.651625,0.772685,8.29354,-1.139085,0.044145,-0.271212
2024-01-01 00:00:06.140,-0.368536,0.900899,7.434714,-0.765685,-0.264118,-0.442559
2024-01-01 00:00:06.150,-1.144268,0.951462,6.953487,-0.532686,-0.096788,-0.219943
2024-01-01 00:00:06.160,-1.11431,0.472224,7.510479,-0.360871,0.265237,-0.365407
2024-01-01 00:00:06.170,-0.859896,0.718423,8.184255,-0.887045,0.052693,-0.163483
2024-01-01 00:00:06.180,-0.90515,1.196557,6.079446,-0.31577,0.079383,0.092784
2024-01-01 00:00:06.190,-0.953068,1.139681,6.749802,-0.712063,0.10678,-0.328871
2024-01-01 00:00:06.200,-1.264419,0.491237,5.583989,-0.436189,-0.008032,-0.14316
2024-01-01 00:00:06.210,-0.777533,1.038947,7.031874,-0.630165,0.171646,-0.363155
2024-01-01 00:00:06.220,-0.237171,0.368996,7.175824,-0.43226,0.064712,-0.255741
2024-01-01 00:00:06.230,-0.376927,1.004012,7.017107,-0.229203,0.295761,-0.221652
2024-01-01 00:00:06.240,-0.240838,1.585196,6.756893,-0.732595,-0.21567,-0.241973
2024-01-01 00:00:06.250,-0.92677,0.755856,6.081862,-0.568827,0.534699,0.170027
2024-01-01 00:00:06.260,-1.042438,0.812673,7.520142,-0.325,0.453482,-0.231609
2024-01-01 00:00:06.270,-0.687255,1.313277,8.233532,0.25734,0.453343,-0.0835
2024-01-01 00:00:06.280,-0.569881,0.640645,7.238335,-0.530136,0.642479,-0.446682
2024-01-01 00:00:06.290,-0.15166,0.931366,7.94698,0.224899,0.275652,-0.077768
2024-01-01 00:00:06.300,-1.071402,1.316093,6.994341,0.245618,1.158933,0.043564
2024-01-01 00:00:06.310,0.112633,0.96108,8.269541,-0.249773,0.689303,-0.191862
2024-01-01 00:00:06.320,-0.421028,1.092995,7.971347,-0.269591,0.71248,-0.47406
2024-01-01 00:00:06.330,-0.457581,1.397657,7.945341,-0.337375,0.536896,-0.087977
2024-01-01 00:00:06.340,-0.604379,1.30966,8.129666,-0.15046,0.80871,-0.064127
2024-01-01 00:00:06.350,-0.770925,1.270203,8.519672,-0.453933,1.168967,0.057485
2024-01-01 00:00:06.360,0.1551,1.093536,9.138718,-0.089999,1.095612,0.266166
2024-01-01 00:00:06.370,-0.048428,1.309554,8.401648,0.334706,1.059462,-0.076765
2024-01-01 00:00:06.380,-0.466539,1.16282,9.101412,-0.1608,0.986429,-0.132457
2024-01-01 00:00:06.390,-0.409271,1.336825,9.493815,-0.036711,0.758901,-0.163303
2024-01-01 00:00:06.400,-0.014527,1.048088,9.108043,-0.370353,0.479444,0.057178
2024-01-01 00:00:06.410,0.745986,1.138225,10.894447,0.179824,0.779953,0.115058
2024-01-01 00:00:06.420,0.129553,0.889987,9.627301,0.183672,0.754327,-0.023072
2024-01-01 00:00:06.430,-0.247452,1.168611,9.91447,0.164538,1.053534,0.191109
2024-01-01 00:00:06.440,0.250445,0.926123,9.924871,0.125236,0.841817,0.159529
2024-01-01 00:00:06.450,0.298287,0.823707,11.625609,0.136805,1.135943,0.111482
2024-01-01 00:00:06.460,-0.493495,1.222221,11.106196,0.365696,0.99609,-0.015252
2024-01-01 00:00:06.470,0.487388,1.193372,10.443748,0.262871,0.542127,0.062758
2024-01-01 00:00:06.480,0.480756,1.347588,11.714227,0.378254,0.162934,-0.214708
2024-01-01 00:00:06.490,0.859576,0.96484,11.35235,0.382228,0.909783,0.199609
2024-01-01 00:00:06.500,1.316404,1.196348,11.508017,0.6378,0.851417,0.182423
2024-01-01 00:00:06.510,1.115895,1.217261,11.28925,0.554101,0.115027,0.220698
2024-01-01 00:00:06.520,0.678696,1.161913,11.165646,0.460379,0.776069,0.28173
2024-01-01 00:00:06.530,0.435534,0.755649,11.849023,0.818442,0.433996,0.277291
2024-01-01 00:00:06.540,1.77223,1.021462,11.434664,0.569896,0.316247,0.215857
2024-01-01 00:00:06.550,0.939665,1.05769,12.79023,0.816341,0.615669,0.25235
2024-01-01 00:00:06.560,0.969773,0.920925,11.134449,0.666348,0.482728,0.046659
2024-01-01 00:00:06.570,1.000918,0.261728,12.703724,0.077847,0.243064,0.181605
2024-01-01 00:00:06.580,1.12159,0.903342,11.808464,0.887414,0.131713,0.288174
2024-01-01 00:00:06.590,1.043002,1.485152,12.029541,0.617009,0.100602,0.181229
2024-01-01 00:00:06.600,0.932319,0.678305,12.303168,0.591331,-0.220085,0.431183
2024-01-01 00:00:06.610,0.979515,0.531598,11.46284,0.694825,-0.199675,0.213449
2024-01-01 00:00:06.620,1.195452,0.824568,12.234237,0.557443,-0.476156,0.35429
2024-01-01 00:00:06.630,1.050846,0.767714,10.204365,0.718648,-0.39696,0.34843
2024-01-01 00:00:06.640,1.023753,0.992214,11.217731,0.531097,-0.466538,0.451475
2024-01-01 00:00:06.650,1.340731,0.216442,11.011792,1.013758,-0.592561,0.482713
2024-01-01 00:00:06.660,1.242448,0.771705,10.723571,0.681838,-0.455715,0.459222
2024-01-01 00:00:06.670,1.884233,0.687049,11.175083,0.628533,-0.624026,0.046189
2024-01-01 00:00:06.680,0.454036,0.42412,11.373857,0.505769,-0.467235,0.547622
2024-01-01 00:00:06.690,1.785801,0.524488,11.405436,0.815873,-1.044462,0.603436
2024-01-01 00:00:06.700,1.859624,0.687181,10.998512,0.805974,-0.709349,0.30728
2024-01-01 00:00:06.710,0.715323,0.594914,10.337682,0.865644,-0.686029,0.419766
2024-01-01 00:00:06.720,1.336349,-0.055327,10.736286,0.519875,-0.830024,0.254719
2024-01-01 00:00:06.730,1.339308,0.487539,10.423987,0.383338,-0.82425,0.09956
2024-01-01 00:00:06.740,0.987427,0.175624,10.686654,0.945761,-1.201407,0.283874
2024-01-01 00:00:06.750,1.216271,0.170129,10.410361,1.165031,-0.734928,0.315914
2024-01-01 00:00:06.760,1.105947,0.123233,9.80723,0.540558,-0.67599,0.345345
2024-01-01 00:00:06.770,2.111768,0.00905,9.101794,1.196546,-0.723157,0.255756
2024-01-01 00:00:06.780,1.827463,0.364401,9.03958,0.870965,-0.590262,0.28998
2024-01-01 00:00:06.790,1.944196,-0.065472,8.899559,0.797782,-0.797695,0.398123
2024-01-01 00:00:06.800,1.748589,-0.423403,8.83283,0.698481,-0.721283,0.2834
2024-01-01 00:00:06.810,1.095368,-0.252645,8.960192,0.448823,-0.789594,0.479005
2024-01-01 00:00:06.820,1.299176,-0.127816,9.016102,1.037736,-0.639255,0.497651
2024-01-01 00:00:06.830,1.643962,0.140784,8.409265,0.591528,-1.182948,0.749773
2024-01-01 00:00:06.840,1.032576,-0.093256,8.266655,0.583886,-0.984645,0.558271
2024-01-01 00:00:06.850,1.695246,-0.575123,8.163906,1.01902,-0.332414,0.421984
2024-01-01 00:00:06.860,1.344717,0.380312,7.636605,0.291297,-1.307618,0.287982
2024-01-01 00:00:06.870,1.278562,-0.330528,7.25564,0.370967,-0.686631,0.419995
2024-01-01 00:00:06.880,1.637319,-0.071424,6.653319,0.735991,-0.313556,0.419252
2024-01-01 00:00:06.890,1.520556,-0.542932,7.101537,0.801355,-0.581217,0.28702
2024-01-01 00:00:06.900,1.21319,-0.380015,7.620852,0.835599,-0.606973,0.474767
2024-01-01 00:00:06.910,1.717681,-0.329951,6.863229,0.624239,-0.418049,0.14013
2024-01-01 00:00:06.920,0.903898,-0.257199,7.021388,1.31647,-0.480576,0.305279
2024-01-01 00:00:06.930,1.466213,-0.345347,7.324819,0.610032,-0.324044,0.416882
2024-01-01 00:00:06.940,1.424648,-0.439772,7.28503,0.591403,-0.440005,0.281412
2024-01-01 00:00:06.950,1.073261,-0.833743,6.349977,0.430941,0.072274,0.284081
2024-01-01 00:00:06.960,1.258457,-0.947381,7.452212,0.641275,0.216457,0.284481
2024-01-01 00:00:06.970,0.667354,-0.711512,7.499269,0.743204,-0.106307,0.169392
2024-01-01 00:00:06.980,1.387874,-0.565535,6.248647,0.868609,-0.352731,0.459942
2024-01-01 00:00:06.990,0.957319,-0.945159,6.42329,0.172764,-0.07018,0.119837
2024-01-01 00:00:07.000,0.795067,-0.590298,7.553293,0.460112,0.081297,0.308529
2024-01-01 00:00:07.010,1.299642,-0.50416,6.85454,0.609003,0.319402,0.310711
2024-01-01 00:00:07.020,0.638992,-1.24348,5.76664,0.619038,0.005541,0.093843
2024-01-01 00:00:07.030,0.344202,-1.246798,6.284672,0.448124,0.128184,0.234209
2024-01-01 00:00:07.040,0.242696,-1.063427,6.998675,0.555614,0.509088,0.073559
2024-01-01 00:00:07.050,0.948751,-0.953041,6.591337,0.190638,0.674725,0.405096
2024-01-01 00:00:07.060,0.236487,-1.225084,7.112069,0.754616,0.340451,0.011753
2024-01-01 00:00:07.070,1.245744,-0.682788,7.4783,0.584992,0.215323,0.070333
2024-01-01 00:00:07.080,-0.151161,-0.980275,8.397588,-0.028224,1.419034,-0.02963
2024-01-01 00:00:07.090,1.116328,-1.11299,7.577479,0.009927,0.839501,-0.064303
2024-01-01 00:00:07.100,0.540668,-1.571183,8.481128,-0.012764,0.618603,0.363165
2024-01-01 00:00:07.110,0.376482,-1.548973,8.840217,0.388336,0.940043,0.190838
2024-01-01 00:00:07.120,0.162494,-1.081953,9.014594,-0.1328,0.724622,0.115235
2024-01-01 00:00:07.130,0.435249,-1.816255,8.560756,0.074871,1.000791,-0.019673
2024-01-01 00:00:07.140,0.224257,-0.881081,7.508737,0.240305,0.847256,0.199456
2024-01-01 00:00:07.150,0.565095,-1.238877,9.031249,0.078893,0.848626,-0.075916
2024-01-01 00:00:07.160,0.160151,-0.223215,9.547336,0.128813,0.810693,0.151092
2024-01-01 00:00:07.170,0.113823,-0.506625,9.121525,-0.233801,0.485323,-0.114552
2024-01-01 00:00:07.180,-0.125096,-1.254433,10.322293,0.14987,1.33452,-0.096098
2024-01-01 00:00:07.190,-0.076815,-1.231038,10.032385,-0.183641,0.612172,0.098573
2024-01-01 00:00:07.200,-0.008117,-0.897741,10.067557,-0.14294,0.499854,0.098681
2024-01-01 00:00:07.210,-0.773191,-0.680888,10.545659,-0.033704,0.773743,0.043052
2024-01-01 00:00:07.220,-0.705011,-1.676825,10.321062,-0.098575,0.568562,-0.219623
2024-01-01 00:00:07.230,-0.031156,-1.713067,8.951463,-0.149364,0.772959,-0.144689
2024-01-01 00:00:07.240,-0.289196,-1.353678,10.226878,-0.37379,0.929914,-0.069532
2024-01-01 00:00:07.250,-0.470553,-0.980351,11.331729,-0.291505,0.974186,-0.235701
2024-01-01 00:00:07.260,-0.456237,-0.992423,10.392914,-0.246221,0.891933,0.082261
2024-01-01 00:00:07.270,-0.396847,-0.805097,10.868887,-0.620305,0.570466,-0.498559
2024-01-01 00:00:07.280,-0.762426,-1.468735,10.561792,-0.421505,0.613886,-0.269747
2024-01-01 00:00:07.290,-0.900036,-1.784748,12.251313,-0.237816,0.654342,-0.243803
2024-01-01 00:00:07.300,-0.61223,-0.811889,12.316901,-0.68244,0.060387,-0.608132
2024-01-01 00:00:07.310,-1.075297,-1.295483,11.015343,-0.101717,0.586842,-0.404866
2024-01-01 00:00:07.320,-0.640933,-1.628678,11.678661,-0.100635,0.02148,-0.115226
2024-01-01 00:00:07.330,-1.429465,-0.954134,11.305743,-0.755854,0.835108,-0.21774
2024-01-01 00:00:07.340,-0.521804,-0.732676,12.086281,-0.131,0.161095,0.000768
2024-01-01 00:00:07.350,-0.763679,-0.978715,12.081693,-0.531409,0.151582,-0.015973
2024-01-01 00:00:07.360,-0.885117,-1.049462,12.286039,-0.415226,-0.060275,-0.19497
2024-01-01 00:00:07.370,-0.674914,-0.928511,12.04508,-0.667552,-0.09181,-0.224709
2024-01-01 00:00:07.380,-0.478488,-0.959107,13.484471,-0.335321,0.56733,-0.273151
2024-01-01 00:00:07.390,-0.747278,-1.218262,11.296615,-0.486374,0.167031,-0.692211
2024-01-01 00:00:07.400,-1.785807,-0.992905,10.897668,-0.812339,-0.521809,-0.513584
2024-01-01 00:00:07.410,-1.626778,-0.585563,11.583525,-0.920061,0.175932,-0.299279
2024-01-01 00:00:07.420,-1.433209,-0.60774,10.883494,-1.012821,0.033818,-0.231469
2024-01-01 00:00:07.430,-1.239104,-0.61503,10.856467,-0.61874,-0.397529,-0.289412
2024-01-01 00:00:07.440,-1.098833,-0.924165,11.04373,-0.539556,-0.311255,-0.475207
2024-01-01 00:00:07.450,-1.563818,-0.639274,10.99059,-0.535823,-0.449965,-0.208671
2024-01-01 00:00:07.460,-1.272203,-1.196239,10.862905,-0.742867,-0.008617,-0.134319
2024-01-01 00:00:07.470,-1.627645,-0.44703,11.550608,-1.016321,-0.753257,-0.222838
2024-01-01 00:00:07.480,-1.600868,-0.028594,10.853074,-0.910165,-0.566669,-0.221383
2024-01-01 00:00:07.490,-1.900593,-0.855459,10.887717,-0.462986,-0.755456,-0.45942
2024-01-01 00:00:07.500,-1.750636,-0.544326,11.323228,-0.882493,-1.047908,-0.219278
2024-01-01 00:00:07.510,-1.917623,-0.224573,10.245815,-0.734564,-0.178691,-0.363345
2024-01-01 00:00:07.520,-1.800879,0.098292,10.349641,-1.047218,-1.054442,-0.31242
2024-01-01 00:00:07.530,-1.103076,-0.365854,10.517184,-0.700841,-0.731761,-0.337679
2024-01-01 00:00:07.540,-1.814386,-0.392528,9.063164,-0.904872,-1.244835,-0.413449
2024-01-01 00:00:07.550,-0.56871,-0.72871,8.629621,-0.533012,-0.927274,-0.526345
2024-01-01 00:00:07.560,-1.32302,-0.059967,9.938435,-0.604307,-0.734732,-0.411169
2024-01-01 00:00:07.570,-1.434307,0.568799,9.823085,-0.923393,-1.053916,-0.251719
2024-01-01 00:00:07.580,-1.800419,0.086627,10.491075,-0.831663,-0.703286,-0.46622
2024-01-01 00:00:07.590,-1.253554,0.043973,9.24607,-0.937066,-0.914231,-0.265641
2024-01-01 00:00:07.600,-1.696482,0.194441,9.414646,-1.152196,-0.548684,-0.288108
2024-01-01 00:00:07.610,-1.446333,0.141496,8.663469,-1.008513,-0.484799,-0.441917
2024-01-01 00:00:07.620,-0.584726,-0.052298,8.745357,-0.740182,-0.953344,-0.186548
2024-01-01 00:00:07.630,-1.5038,0.485076,9.314663,-0.70278,-0.763893,-0.44538
2024-01-01 00:00:07.640,-1.055077,0.351938,7.051292,-0.740102,-0.708777,-0.162187
2024-01-01 00:00:07.650,-1.688319,0.335169,8.275925,-0.844611,-0.56669,-0.31947
2024-01-01 00:00:07.660,-1.437102,0.08244,9.06015,-0.526657,-0.680345,-0.382342
2024-01-01 00:00:07.670,-0.785516,0.810686,7.887039,-0.733606,-0.594561,-0.507916
2024-01-01 00:00:07.680,-1.602995,0.662977,8.496233,-0.562083,-0.657158,-0.382187
2024-01-01 00:00:07.690,-0.725316,0.340904,7.109893,-1.168603,-0.517993,-0.393143
2024-01-01 00:00:07.700,-1.085967,0.849756,7.31774,-1.691896,-0.169425,-0.544393
2024-01-01 00:00:07.710,-1.502484,0.441514,7.245825,-0.625384,-0.276434,-0.380808
2024-01-01 00:00:07.720,-1.054194,0.396845,5.913013,-1.036478,-0.203971,-0.460714
2024-01-01 00:00:07.730,-0.903081,0.443217,6.409362,-0.7163,-0.137496,-0.243695
2024-01-01 00:00:07.740,-0.991852,0.178448,6.38212,-0.720583,-0.293721,-0.126588
2024-01-01 00:00:07.750,-1.7232,0.888773,7.385861,-0.229081,-0.110986,-0.497003
2024-01-01 00:00:07.760,-1.390435,0.234349,7.376836,-0.505834,-0.396227,-0.04607
2024-01-01 00:00:07.770,-1.183124,0.450326,7.054128,-0.543331,0.258801,-0.311681
2024-01-01 00:00:07.780,-1.081399,0.230081,7.323381,-0.353604,-0.687246,-0.427679
2024-01-01 00:00:07.790,-0.79533,0.859512,6.789557,-0.447911,0.05355,-0.156354
2024-01-01 00:00:07.800,-0.906019,0.87144,7.566052,-0.6308,0.426936,-0.325159
2024-01-01 00:00:07.810,-1.389733,0.84831,6.950255,-0.224058,-0.133757,-0.258224
2024-01-01 00:00:07.820,-0.742011,0.66186,7.032708,-0.744147,0.371367,-0.293996
2024-01-01 00:00:07.830,-0.612736,0.649767,6.924955,-0.359957,0.16376,-0.342895
2024-01-01 00:00:07.840,-0.580594,1.166,7.531878,-0.801037,0.302211,-0.098473
2024-01-01 00:00:07.850,-0.347123,0.885183,7.021898,-0.335892,0.688912,-0.236384
2024-01-01 00:00:07.860,-0.381275,1.167287,7.901843,-0.310765,0.557151,-0.395004
2024-01-01 00:00:07.870,-0.459142,0.827174,6.865802,0.088524,0.051111,-0.082636
2024-01-01 00:00:07.880,-0.59016,1.165742,7.019421,-0.692898,0.364187,-0.331665
2024-01-01 00:00:07.890,-1.091808,1.519357,8.148077,-0.422473,0.89695,-0.309115
2024-01-01 00:00:07.900,-0.304184,1.319426,7.877377,-0.036756,0.806126,0.057678
2024-01-01 00:00:07.910,-0.325233,1.033281,7.841472,-0.128397,1.167397,-0.285564
2024-01-01 00:00:07.920,-0.245627,1.2458,8.753608,-0.13662,1.18297,-0.438315
2024-01-01 00:00:07.930,-0.729771,1.106264,8.109903,-0.389918,0.703966,0.017987
2024-01-01 00:00:07.940,-0.603068,1.188824,8.519346,-0.267544,1.437662,-0.105499
2024-01-01 00:00:07.950,0.202464,1.094933,9.589184,0.222652,0.835265,-0.076952
2024-01-01 00:00:07.960,-0.121168,1.147624,9.8597,-0.070117,0.60063,-0.075795
2024-01-01 00:00:07.970,0.190184,1.263005,10.073766,0.068058,0.689824,0.02186
2024-01-01 00:00:07.980,0.020628,0.901962,9.250551,-0.023082,0.285732,-0.11005
2024-01-01 00:00:07.990,0.080172,0.893938,10.279159,-0.258568,1.248078,0.240019
2024-01-01 00:00:08.000,0.457089,0.779013,9.275461,0.302087,1.236178,-0.187117
2024-01-01 00:00:08.010,0.006807,0.710515,9.491051,0.225767,0.569582,0.116711
2024-01-01 00:00:08.020,0.279508,0.818585,8.885717,0.707538,0.747356,0.161882
2024-01-01 00:00:08.030,0.142131,1.222948,11.282154,-0.091801,0.80411,-0.032901
2024-01-01 00:00:08.040,0.209444,0.89679,10.064346,0.398452,0.511165,-0.057156
2024-01-01 00:00:08.050,0.310337,1.306423,10.640151,-0.104661,0.278865,0.264189
2024-01-01 00:00:08.060,0.552675,1.148678,10.370969,0.292631,0.62699,-0.021982
2024-01-01 00:00:08.070,0.36301,0.531873,11.406583,0.527099,0.557036,0.050486
2024-01-01 00:00:08.080,1.024909,1.301337,10.959983,-0.205823,0.493979,0.289201
2024-01-01 00:00:08.090,0.326196,1.328791,10.580135,0.289732,0.596872,0.175693
2024-01-01 00:00:08.100,0.626827,0.766417,11.659951,0.228388,0.845329,-0.084976
2024-01-01 00:00:08.110,0.590176,1.168007,10.735048,0.221354,0.355908,0.460481
2024-01-01 00:00:08.120,1.30122,0.760759,11.156238,0.520185,0.415347,0.132439
2024-01-01 00:00:08.130,0.913037,1.02119,10.537307,0.730434,0.493199,0.164718
2024-01-01 00:00:08.140,1.253543,0.585182,10.977783,0.442626,0.386831,0.27634
2024-01-01 00:00:08.150,0.419223,0.397747,11.909194,0.552262,0.029965,0.344207
2024-01-01 00:00:08.160,1.077953,0.79053,10.765419,0.553636,0.141802,0.556695
2024-01-01 00:00:08.170,1.339645,0.83655,11.050846,0.548864,0.188,0.025196
2024-01-01 00:00:08.180,1.099269,0.721303,11.868265,0.298581,-0.297883,0.409351
2024-01-01 00:00:08.190,1.483923,0.451033,11.559182,0.869647,0.233278,0.407719
2024-01-01 00:00:08.200,0.968767,0.650658,12.926959,0.687035,0.208991,0.286043
2024-01-01 00:00:08.210,1.68012,0.814607,12.797898,0.731706,-0.394978,0.434584
2024-01-01 00:00:08.220,2.026653,0.682404,11.254815,0.450127,-0.229914,0.466018
2024-01-01 00:00:08.230,1.128341,0.711596,11.966873,0.554707,-0.180084,0.127462
2024-01-01 00:00:08.240,1.130758,0.415767,11.986629,0.642198,-0.537268,0.605581
2024-01-01 00:00:08.250,1.824724,0.927316,11.146321,0.318356,-0.338187,0.117129
2024-01-01 00:00:08.260,1.896204,0.181055,10.539748,0.294447,-0.47266,0.18793
2024-01-01 00:00:08.270,1.185584,0.637455,11.230543,0.579725,-0.932154,0.325688
2024-01-01 00:00:08.280,1.244629,0.802271,11.005677,0.872867,-0.498581,0.65986
2024-01-01 00:00:08.290,1.314022,0.5478,10.713778,0.590127,-0.932801,0.330467
2024-01-01 00:00:08.300,0.960851,0.297968,11.039614,0.508717,-0.463281,0.376919
2024-01-01 00:00:08.310,1.126424,0.154877,10.217487,0.56857,-0.901874,0.600932
2024-01-01 00:00:08.320,1.110801,0.578349,9.823025,0.666031,-0.805831,0.344886
2024-01-01 00:00:08.330,1.205552,-0.205629,10.336119,0.697818,-0.449133,0.216376
2024-01-01 00:00:08.340,1.471886,-0.116376,10.302289,1.332861,-0.68989,0.333155
2024-01-01 00:00:08.350,1.573446,0.008521,9.252269,1.059106,-1.10059,0.603344
2024-01-01 00:00:08.360,2.039278,0.452014,10.216011,1.054382,-1.096037,0.409724
2024-01-01 00:00:08.370,1.149991,0.147452,8.535853,1.091833,-0.998499,0.689443
2024-01-01 00:00:08.380,1.844415,-0.30414,8.994847,0.550242,-0.751117,0.510664
2024-01-01 00:00:08.390,1.423168,-0.154046,8.97445,0.493376,-0.756039,0.302762
2024-01-01 00:00:08.400,1.476591,-0.292383,8.57155,0.520031,-1.046984,0.406036
2024-01-01 00:00:08.410,1.723613,-0.367987,8.418588,1.12692,-1.113421,0.268664
2024-01-01 00:00:08.420,1.085691,0.091892,9.570332,0.651812,-0.73154,0.29404
2024-01-01 00:00:08.430,1.601411,-0.659709,7.890263,0.469864,-0.822747,1.063214
2024-01-01 00:00:08.440,1.512476,0.188421,9.5242,0.667833,-0.208506,0.540585
2024-01-01 00:00:08.450,1.61097,-0.091315,8.252595,0.707608,-0.70455,0.512795
2024-01-01 00:00:08.460,1.521986,-0.057569,7.901869,0.824851,-0.221606,0.285397
2024-01-01 00:00:08.470,2.260093,-0.568157,7.96165,0.809798,-0.925047,0.608968
2024-01-01 00:00:08.480,1.155319,-0.518039,8.950012,0.52817,-0.979116,0.53252
2024-01-01 00:00:08.490,1.168332,-0.94605,6.882138,0.893644,-0.815564,0.643358
2024-01-01 00:00:08.500,1.109635,-0.715751,6.694481,0.548327,-0.18467,0.62903
2024-01-01 00:00:08.510,1.104812,-0.451639,6.790398,0.653853,0.01365,0.124598
2024-01-01 00:00:08.520,1.045624,-0.251369,7.131533,0.848339,-0.561706,0.171847
2024-01-01 00:00:08.530,1.652379,-1.011795,6.086947,0.498864,-0.419818,0.179091
2024-01-01 00:00:08.540,1.698997,-0.827706,6.985142,0.498633,-0.533549,0.178894
2024-01-01 00:00:08.550,0.965793,-0.800737,7.855901,0.769546,-0.629345,0.359332
2024-01-01 00:00:08.560,0.836156,-1.210206,6.974478,0.38689,0.069131,0.215641
2024-01-01 00:00:08.570,1.252655,-0.64896,6.712348,0.483887,0.01193,0.600932
2024-01-01 00:00:08.580,0.852874,-1.077175,6.530935,0.696883,0.025717,0.564676
2024-01-01 00:00:08.590,1.224548,-0.950876,7.378194,1.048468,-0.260144,0.266503
2024-01-01 00:00:08.600,1.029361,-1.058741,6.458305,0.662465,0.566078,0.548856
2024-01-01 00:00:08.610,0.381657,-1.189423,7.971766,0.604649,0.095501,0.466465
2024-01-01 00:00:08.620,1.40621,-0.982724,8.078294,0.593811,0.418626,0.162949
2024-01-01 00:00:08.630,1.444215,-1.071763,7.229456,0.16672,-0.01631,-0.083874
2024-01-01 00:00:08.640,0.550992,-1.143544,7.169352,0.437149,0.359657,0.17143
2024-01-01 00:00:08.650,0.578396,-1.273833,7.843592,0.373407,0.537565,0.093731
2024-01-01 00:00:08.660,0.761661,-0.981108,7.99289,0.433254,0.601043,0.207405
2024-01-01 00:00:08.670,0.725159,-0.600882,7.073745,0.353447,0.609269,0.175544
2024-01-01 00:00:08.680,0.784138,-1.073302,7.365213,0.390204,0.742034,0.157092
2024-01-01 00:00:08.690,1.201909,-0.833005,7.075936,0.187913,0.379735,0.211443
2024-01-01 00:00:08.700,0.380323,-1.563724,8.186335,0.250521,0.751565,-0.063944
2024-01-01 00:00:08.710,0.106082,-1.112368,8.494849,-0.101365,0.766164,0.1645
2024-01-01 00:00:08.720,-0.154642,-1.500149,7.560297,0.09502,0.826573,0.021556
2024-01-01 00:00:08.730,0.014419,-1.623442,8.233565,0.491839,0.812906,0.102063
2024-01-01 00:00:08.740,0.200356,-1.409772,7.929596,0.192742,0.497755,0.200132
2024-01-01 00:00:08.750,0.781424,-0.836145,8.367243,0.076545,0.502787,-0.142772
2024-01-01 00:00:08.760,-0.086696,-0.912613,9.358791,0.524414,0.28969,-0.017003
2024-01-01 00:00:08.770,0.113787,-1.126763,8.848413,-0.321296,1.053434,-0.008324
2024-01-01 00:00:08.780,-0.029348,-1.659662,9.283204,-0.289951,1.056494,-0.083434
2024-01-01 00:00:08.790,0.333312,-1.257062,8.749978,0.384111,1.055729,0.112941
2024-01-01 00:00:08.800,0.742904,-1.104137,9.942481,-0.063988,0.911565,-0.145798
2024-01-01 00:00:08.810,-0.386004,-1.136603,10.007012,-0.167419,0.286438,-0.136697
2024-01-01 00:00:08.820,-0.429871,-1.735175,9.818061,-0.437703,0.542808,-0.175439
2024-01-01 00:00:08.830,0.048923,-1.440073,10.297393,-0.056894,0.816902,0.079399
2024-01-01 00:00:08.840,-0.135347,-1.181323,10.676483,-0.063356,0.77819,-0.173602
2024-01-01 00:00:08.850,0.215443,-0.988532,10.297628,-0.503439,0.654022,-0.045901
2024-01-01 00:00:08.860,-0.282757,-1.793796,10.093818,-0.294873,0.762938,0.166454
2024-01-01 00:00:08.870,-0.668357,-1.167374,12.049265,-0.373268,0.630463,-0.155917
2024-01-01 00:00:08.880,-0.390506,-1.057866,10.847882,-0.254531,0.610693,0.007546
2024-01-01 00:00:08.890,-0.262895,-0.826235,11.271627,-0.626981,0.370087,0.077119
2024-01-01 00:00:08.900,-0.416468,-0.851922,11.997351,-0.062286,0.721423,-0.033558
2024-01-01 00:00:08.910,-0.577696,-0.862027,13.486073,-0.17384,0.311345,-0.203918
2024-01-01 00:00:08.920,-0.43234,-1.252191,10.950845,-0.520488,0.026896,-0.118531
2024-01-01 00:00:08.930,-0.445608,-1.558451,11.958895,-0.510031,0.105099,-0.42107
2024-01-01 00:00:08.940,-0.418965,-1.076279,11.383999,-0.515557,0.147177,-0.357732
2024-01-01 00:00:08.950,-0.722133,-0.628701,11.523583,-0.700807,0.417787,-0.343816
2024-01-01 00:00:08.960,-1.052661,-0.480541,11.455379,-0.641081,0.092662,0.07098
2024-01-01 00:00:08.970,-0.986268,-0.653406,11.24858,-0.620963,-0.010006,-0.398586
2024-01-01 00:00:08.980,-0.657178,-0.704418,11.845691,-0.172493,-0.342558,-0.411976
2024-01-01 00:00:08.990,-1.405548,-0.684686,11.042649,-0.360477,0.099243,-0.455154
2024-01-01 00:00:09.000,-1.029015,-0.929534,12.344197,-0.383963,-0.326249,-0.224842
2024-01-01 00:00:09.010,-1.332353,-0.764654,11.808322,-0.544683,-0.253389,-0.297189
2024-01-01 00:00:09.020,-1.219405,-0.186727,11.9501,-0.935047,0.077959,-0.164844
2024-01-01 00:00:09.030,-0.814883,-0.930962,11.386494,-0.683621,-0.226791,-0.235935
2024-01-01 00:00:09.040,-1.226375,-0.123503,11.351982,-0.447116,-0.820745,-0.551928
2024-01-01 00:00:09.050,-1.30592,-0.663344,11.609613,-1.019725,-0.913195,-0.473671
2024-01-01 00:00:09.060,-1.824986,-0.127027,10.69583,-0.560348,-0.541113,-0.154944
2024-01-01 00:00:09.070,-1.11262,-0.903808,11.01158,-0.152046,-0.879183,-0.396844
2024-01-01 00:00:09.080,-1.170531,-0.262353,10.596708,-0.479319,-0.461253,-0.194248
2024-01-01 00:00:09.090,-0.659788,-0.614836,10.430168,-0.402187,-0.656351,-0.4003
2024-01-01 00:00:09.100,-1.54293,-0.773456,9.600446,-0.71086,-0.664964,-0.527871
2024-01-01 00:00:09.110,-1.374561,-0.237845,11.329742,-0.532024,-0.91801,-0.432493
2024-01-01 00:00:09.120,-1.377784,0.045377,10.040189,-0.960833,-0.336398,-0.535892
2024-01-01 00:00:09.130,-0.924494,-0.464607,10.875819,-0.588555,-0.08673,-0.478594
2024-01-01 00:00:09.140,-1.5192,-0.614162,10.636607,-0.628855,-0.887717,-0.366087
2024-01-01 00:00:09.150,-1.39513,-0.145088,9.150073,-0.723676,-0.745432,-0.321336
2024-01-01 00:00:09.160,-1.28465,-0.096661,9.064327,-0.469619,-0.81979,-0.637839
2024-01-01 00:00:09.170,-1.434406,0.14128,10.874993,-0.934546,-0.914285,-0.40253
2024-01-01 00:00:09.180,-1.655951,0.308912,10.232891,-0.846604,-1.057336,-0.487912
2024-01-01 00:00:09.190,-1.429422,0.053421,9.056331,-0.774723,-1.11525,-0.496557
2024-01-01 00:00:09.200,-1.116916,0.674999,9.020844,-1.053503,-1.117364,-0.378147
2024-01-01 00:00:09.210,-1.844987,0.232537,8.340987,-0.735644,-0.716446,-0.478756
2024-01-01 00:00:09.220,-1.429883,0.108,8.738639,-1.217158,-0.926896,-0.186392
2024-01-01 00:00:09.230,-1.709891,-0.225208,7.924675,-0.519514,-1.415831,-0.212417
2024-01-01 00:00:09.240,-1.032738,0.225398,7.026125,-0.76221,-0.629543,-0.20966
2024-01-01 00:00:09.250,-1.968026,0.248741,7.249459,-0.895509,-0.715231,-0.456879
2024-01-01 00:00:09.260,-1.612215,0.682668,7.82895,-0.964109,-0.32953,-0.522133
2024-01-01 00:00:09.270,-1.264053,0.57763,7.045922,-0.803219,-0.529321,-0.359983
2024-01-01 00:00:09.280,-0.825465,0.128701,7.492217,-0.560414,-0.944814,-0.388792
2024-01-01 00:00:09.290,-1.371602,0.577068,6.810778,-0.582313,-1.081543,-0.450947
2024-01-01 00:00:09.300,-1.51601,0.768915,6.856369,-0.881286,-0.649722,-0.528811
2024-01-01 00:00:09.310,-0.634337,1.06705,7.653642,-0.900972,-0.568947,-0.350959
2024-01-01 00:00:09.320,-1.768594,0.915134,7.231801,-0.50873,-0.117139,-0.397088
2024-01-01 00:00:09.330,-1.998462,0.916372,7.015756,-0.83599,-0.293217,-0.224449
2024-01-01 00:00:09.340,-1.040061,0.744312,7.444447,-0.621858,0.056156,-0.218652
2024-01-01 00:00:09.350,-1.33312,0.879822,7.180231,-0.586342,-0.493333,-0.14352
2024-01-01 00:00:09.360,-1.476373,1.174039,7.681598,-0.518753,0.145339,-0.487279
2024-01-01 00:00:09.370,-0.830822,0.433975,6.618557,-0.360764,0.151012,-0.227507
2024-01-01 00:00:09.380,-0.951549,0.762304,6.636159,-0.868743,-0.466871,-0.385621
2024-01-01 00:00:09.390,-1.190832,0.667348,6.17331,-1.007606,0.435032,-0.44797
2024-01-01 00:00:09.400,-1.396497,1.043453,6.684823,-0.64767,0.193785,-0.317194
2024-01-01 00:00:09.410,-0.596545,1.327922,7.498411,-0.030634,0.333417,-0.080202
2024-01-01 00:00:09.420,-0.626452,0.807424,7.744698,0.050065,0.082709,-0.283587
2024-01-01 00:00:09.430,-0.839526,0.295556,7.634297,0.02856,0.679418,0.020201
2024-01-01 00:00:09.440,-0.108036,0.913543,6.209782,-0.45057,0.123582,-0.118831
2024-01-01 00:00:09.450,-1.077264,1.334205,7.896249,-0.820321,0.684902,-0.24651
2024-01-01 00:00:09.460,-1.183954,1.242762,6.406094,-0.932437,0.735909,0.000668
2024-01-01 00:00:09.470,-0.838466,1.229562,8.040109,-0.471535,0.337804,-0.092203
2024-01-01 00:00:09.480,-0.557607,1.035034,7.484035,-0.3384,1.124173,-0.284324
2024-01-01 00:00:09.490,-0.400997,0.751514,8.223319,0.065868,0.729301,0.149176
2024-01-01 00:00:09.500,-0.514359,1.304242,7.264191,-0.012343,0.873819,-0.075725
2024-01-01 00:00:09.510,-0.2498,0.912018,8.809804,-0.142093,0.363089,-0.096652
2024-01-01 00:00:09.520,-0.753574,1.828379,7.536015,-0.390746,1.304208,-0.212473
2024-01-01 00:00:09.530,0.247757,1.35333,8.156565,-0.377561,0.493739,0.108248
2024-01-01 00:00:09.540,-0.22794,1.015178,8.16297,-0.042701,1.076244,0.024475
2024-01-01 00:00:09.550,0.250548,1.011308,7.938851,0.099327,0.586391,0.056918
2024-01-01 00:00:09.560,0.038348,1.17034,9.150375,0.054447,0.690221,-0.097891
2024-01-01 00:00:09.570,0.137285,1.128013,10.288094,-0.270692,1.046803,0.119094
2024-01-01 00:00:09.580,0.235901,1.534695,10.95837,0.182124,1.105883,0.146501
2024-01-01 00:00:09.590,0.252185,1.253491,9.741081,0.157404,0.52529,-0.074853
2024-01-01 00:00:09.600,0.379297,0.974141,10.495925,-0.18535,1.104619,-0.17139
2024-01-01 00:00:09.610,0.678165,1.754977,10.200334,-0.082501,1.076979,0.143996
2024-01-01 00:00:09.620,0.340032,1.195009,10.533644,0.31679,0.559921,-0.163669
2024-01-01 00:00:09.630,0.577267,1.401411,10.25214,0.116902,1.167822,0.110567
2024-01-01 00:00:09.640,0.355065,0.977019,10.722042,0.603406,0.372935,0.035973
2024-01-01 00:00:09.650,0.947271,1.255351,11.077075,0.361672,0.545376,0.300994
2024-01-01 00:00:09.660,0.262563,1.224902,10.621271,0.144636,0.78139,0.07422
2024-01-01 00:00:09.670,1.184926,0.548072,11.045036,0.293233,0.404217,0.313983
2024-01-01 00:00:09.680,0.594978,1.701219,11.193106,0.340663,0.635703,0.085277
2024-01-01 00:00:09.690,0.161754,1.463799,11.805849,0.171249,0.578626,0.326672
2024-01-01 00:00:09.700,0.759827,0.935747,10.878812,0.153181,0.416983,0.499715
2024-01-01 00:00:09.710,0.527978,0.700889,11.537596,0.584066,0.614372,0.044152
2024-01-01 00:00:09.720,1.11074,1.110904,12.704749,0.646793,0.289184,0.261543
2024-01-01 00:00:09.730,0.636999,1.006149,12.366427,0.612501,0.342014,0.643095
2024-01-01 00:00:09.740,0.756814,1.058825,12.526684,0.865751,0.506841,0.253449
2024-01-01 00:00:09.750,0.297784,0.980107,11.841547,0.376089,0.352623,0.265034
2024-01-01 00:00:09.760,0.845474,1.043584,12.032894,0.953918,0.285224,0.38595
2024-01-01 00:00:09.770,0.198526,1.2936,12.420397,0.333108,-0.265358,0.285331
2024-01-01 00:00:09.780,0.533997,0.996203,12.724638,0.327289,0.086218,0.034146
2024-01-01 00:00:09.790,1.394299,0.475958,10.774969,0.161693,-0.331244,0.470684
2024-01-01 00:00:09.800,1.441227,1.163481,11.091349,0.510523,-0.497921,0.010544
2024-01-01 00:00:09.810,1.351341,1.209584,12.48637,0.515366,-0.26034,0.25813
2024-01-01 00:00:09.820,0.89836,1.624591,11.550367,0.791112,-0.531831,0.510928
2024-01-01 00:00:09.830,1.252555,0.302448,11.25523,0.737908,-0.169551,0.284986
2024-01-01 00:00:09.840,1.298479,0.671892,10.842932,0.394951,-0.222743,0.242543
2024-01-01 00:00:09.850,0.922782,-0.067,11.122097,0.610197,-0.958562,0.486079
2024-01-01 00:00:09.860,1.880809,0.681312,10.537936,0.629599,-0.743517,0.233565
2024-01-01 00:00:09.870,1.686007,0.307845,12.329203,0.291434,-0.951597,0.184381
2024-01-01 00:00:09.880,1.323766,1.005545,11.025407,0.502018,-0.748881,0.414805
2024-01-01 00:00:09.890,1.430514,0.151669,10.854182,0.565219,-0.562078,0.351522
2024-01-01 00:00:09.900,1.511835,-0.167755,11.048407,1.12582,-0.774901,0.197156
2024-01-01 00:00:09.910,0.73986,0.152042,11.084765,0.823579,-0.895799,0.483401
2024-01-01 00:00:09.920,1.381267,-0.345259,10.898875,0.948358,-0.452706,0.461081
2024-01-01 00:00:09.930,1.24012,0.426299,10.786038,0.414042,-1.378533,0.340387
2024-01-01 00:00:09.940,1.136991,-0.465285,9.660372,1.091918,-0.512697,0.352982
2024-01-01 00:00:09.950,1.395609,0.115809,9.651351,1.122073,-0.972487,0.468957
2024-01-01 00:00:09.960,2.127305,-0.563206,10.043225,0.299409,-0.865258,0.578052
2024-01-01 00:00:09.970,1.724208,-0.08318,9.133723,0.623625,-0.981644,0.357558
2024-01-01 00:00:09.980,1.299473,0.458675,9.224175,0.923614,-0.462886,0.498039
2024-01-01 00:00:09.990,1.696938,0.026662,9.250386,0.959248,-1.149897,0.483856
2024-01-01 00:00:10.000,1.981136,-0.387649,9.269101,0.625769,-0.827542,0.529592
2024-01-01 00:00:10.010,1.807499,-0.184831,7.669011,0.715026,-0.681792,0.401597
2024-01-01 00:00:10.020,1.494963,-0.216661,8.853815,0.636837,-1.194533,0.256242
2024-01-01 00:00:10.030,1.235594,-0.12653,8.151763,0.807349,-0.99498,0.320498
2024-01-01 00:00:10.040,1.692063,-0.724213,8.495775,1.071393,-0.770531,0.437477
2024-01-01 00:00:10.050,1.568823,-0.181734,8.368178,0.570495,-0.919087,0.654397
2024-01-01 00:00:10.060,1.725621,-1.215614,8.668271,1.003433,-0.860929,0.304011
2024-01-01 00:00:10.070,1.613624,-0.637427,8.381202,0.546616,-0.700035,0.491735
2024-01-01 00:00:10.080,1.73551,-0.638414,8.241046,0.517782,-0.401914,0.315636
2024-01-01 00:00:10.090,1.155566,-0.344641,8.169668,0.920861,-0.598231,0.374677
2024-01-01 00:00:10.100,1.776637,-0.569728,7.42349,0.93211,-0.188009,0.578122
2024-01-01 00:00:10.110,1.355319,-1.039171,7.181574,0.898804,-0.649283,0.45762
2024-01-01 00:00:10.120,1.981117,-0.953027,7.55824,0.340264,-0.652574,0.148412
2024-01-01 00:00:10.130,0.980231,-0.636933,7.409359,0.53495,0.204349,0.239848
2024-01-01 00:00:10.140,1.793811,-0.758185,6.779903,0.8384,-0.377652,0.50476
2024-01-01 00:00:10.150,1.218431,-0.944991,7.130719,0.623272,-0.475495,0.327725
2024-01-01 00:00:10.160,0.882322,-0.951098,6.862202,0.323747,-0.516968,0.123759
2024-01-01 00:00:10.170,0.900394,-0.63234,6.400708,0.685115,0.254138,0.162425
2024-01-01 00:00:10.180,0.915409,-1.029536,7.584485,0.369315,-0.033056,0.379532
2024-01-01 00:00:10.190,1.132172,-0.932339,6.92492,0.973279,0.055426,0.411485
2024-01-01 00:00:10.200,1.121365,-0.285209,8.056524,0.886676,0.1449,0.252911
2024-01-01 00:00:10.210,0.690782,-1.392122,6.086016,0.626532,0.502638,0.609051
2024-01-01 00:00:10.220,0.834874,-1.547901,6.738926,0.790064,0.267676,0.348529
2024-01-01 00:00:10.230,1.543706,-0.783064,7.142635,0.439617,0.95979,0.175188
2024-01-01 00:00:10.240,1.347835,-1.245948,7.843691,0.58773,0.466118,0.075829
2024-01-01 00:00:10.250,0.844039,-1.160424,7.544628,0.738137,0.754343,0.038121
2024-01-01 00:00:10.260,0.651686,-1.320246,7.615145,0.401846,0.743395,0.220549
2024-01-01 00:00:10.270,0.626465,-1.183103,6.955792,0.247912,0.582801,0.082538
2024-01-01 00:00:10.280,0.744348,-0.643151,7.081994,-0.143693,0.491328,0.392293
2024-01-01 00:00:10.290,0.115982,-0.897883,8.048454,0.231995,0.763265,0.346336
2024-01-01 00:00:10.300,0.327484,-0.893899,7.282873,0.428558,0.845785,0.206311
2024-01-01 00:00:10.310,-0.223478,-1.589691,7.910942,0.428689,0.608647,-0.080709
2024-01-01 00:00:10.320,0.442655,-1.520621,8.656554,0.287652,0.822251,-0.020052
2024-01-01 00:00:10.330,0.471377,-2.035628,8.024476,-0.004734,1.113752,0.253647
2024-01-01 00:00:10.340,0.017294,-1.433512,9.636397,-0.394787,1.341232,-0.034751
2024-01-01 00:00:10.350,0.678568,-0.908634,9.619135,-0.055712,1.051277,0.202367
2024-01-01 00:00:10.360,-0.360281,-1.043655,8.276837,-0.039427,1.31212,0.08952
2024-01-01 00:00:10.370,-0.502836,-1.266429,8.82488,-0.073062,0.692585,0.010343
2024-01-01 00:00:10.380,0.029196,-1.20604,8.277273,0.128313,1.02363,-0.118588
2024-01-01 00:00:10.390,0.258142,-1.403531,9.299773,0.438637,1.175761,-0.043028
2024-01-01 00:00:10.400,0.42222,-1.131098,10.345226,-0.058267,0.604806,-0.016127
2024-01-01 00:00:10.410,-0.386318,-0.956574,9.886152,-0.174561,0.690111,0.094692
2024-01-01 00:00:10.420,0.093627,-1.663075,10.552704,-0.216225,1.223574,-0.20857
2024-01-01 00:00:10.430,-0.355153,-1.07856,9.641692,-0.15113,0.518021,-0.130536
2024-01-01 00:00:10.440,-0.459328,-0.877057,11.090698,-0.419824,0.394488,-0.099652
2024-01-01 00:00:10.450,-0.146242,-1.267858,10.511391,-0.212896,1.075217,-0.022071
2024-01-01 00:00:10.460,-0.283119,-0.917886,10.979316,-0.160061,0.951566,-0.272651
2024-01-01 00:00:10.470,-1.118285,-0.266718,11.067528,-0.249737,0.715515,-0.348565
2024-01-01 00:00:10.480,-0.103996,-1.123713,10.554405,-0.2167,0.547401,-0.064448
2024-01-01 00:00:10.490,-0.191028,-0.954021,10.743029,-0.251062,0.397077,-0.407442
2024-01-01 00:00:10.500,-0.945237,-1.27137,12.020539,-0.830329,0.521933,-0.00093
2024-01-01 00:00:10.510,-0.638863,-0.97189,11.805593,-0.255393,0.788338,-0.230694
2024-01-01 00:00:10.520,-0.654383,-0.862906,12.247832,-0.608977,0.392529,-0.452741
2024-01-01 00:00:10.530,-0.784674,-0.915704,11.918764,-0.741111,0.812065,-0.305639
2024-01-01 00:00:10.540,-1.115774,-1.251724,11.874052,-0.768469,-0.018399,-0.189309
2024-01-01 00:00:10.550,-1.204063,-0.8541,10.88627,-0.408412,0.135651,-0.338304
2024-01-01 00:00:10.560,-1.022263,-0.446123,11.711759,-0.596081,-0.019081,-0.267214
2024-01-01 00:00:10.570,-0.645617,-0.717592,11.854845,-0.983731,-0.263948,-0.170608
2024-01-01 00:00:10.580,-0.906929,-0.529666,12.938065,-0.465658,-0.097826,-0.322912
2024-01-01 00:00:10.590,-1.266319,-0.854177,12.220172,-0.966091,-0.021746,-0.443653
2024-01-01 00:00:10.600,-0.904163,-0.5217,12.650342,-0.591315,-0.060763,-0.357983
2024-01-01 00:00:10.610,-2.20708,-0.62533,12.08222,-0.585756,0.28624,-0.110465
2024-01-01 00:00:10.620,-0.841978,-0.955723,11.295647,-0.442097,-0.203219,-0.078986
2024-01-01 00:00:10.630,-1.884974,-0.535194,11.670209,-0.235152,-0.092786,-0.643275
2024-01-01 00:00:10.640,-1.432978,-0.887583,11.640781,-1.037768,-0.422423,-0.184645
2024-01-01 00:00:10.650,-1.726032,-0.738346,10.886118,-0.724664,-0.075337,-0.318251
2024-01-01 00:00:10.660,-1.813242,-0.449241,11.070436,-0.794472,0.051924,-0.224097
2024-01-01 00:00:10.670,-0.977662,-0.373639,11.036021,-0.62967,-0.46436,-0.451627
2024-01-01 00:00:10.680,-1.569348,-0.775637,11.888598,-0.695764,-0.891036,-0.64008
2024-01-01 00:00:10.690,-1.303899,-0.058078,9.707275,-0.84823,-0.821828,-0.292373
2024-01-01 00:00:10.700,-1.45891,-0.157498,11.351873,-0.879552,-0.651655,-0.52581
2024-01-01 00:00:10.710,-1.2906,-0.494834,10.002251,-1.05648,-0.641048,-0.596928
2024-01-01 00:00:10.720,-1.443493,-0.698567,9.584548,-0.537238,-0.60892,-0.589862
2024-01-01 00:00:10.730,-1.929965,-0.234271,10.803854,-0.675022,-0.691973,-0.304774
2024-01-01 00:00:10.740,-1.140466,-0.277795,10.368259,-0.564776,-0.82377,-0.376191
2024-01-01 00:00:10.750,-1.667906,-0.063059,10.462836,-0.874981,-0.997941,-0.281321
2024-01-01 00:00:10.760,-2.043509,-0.158776,10.017876,-0.963519,-0.746783,-0.299294
2024-01-01 00:00:10.770,-1.649837,-0.604839,10.513757,-1.069577,-0.386245,-0.463139
2024-01-01 00:00:10.780,-0.973696,-0.071864,9.491425,-0.709717,-0.592665,-0.410294
2024-01-01 00:00:10.790,-1.198025,0.000128,8.902502,-1.057603,-0.706372,-0.475543
2024-01-01 00:00:10.800,-1.611954,0.328943,8.983976,-0.332461,-0.56985,-0.428863
2024-01-01 00:00:10.810,-1.604179,-0.0238,9.289639,-1.117278,-0.902073,-0.540272
2024-01-01 00:00:10.820,-1.584226,0.73579,7.992177,-0.716467,-0.913421,-0.333868
2024-01-01 00:00:10.830,-0.732225,-0.295137,7.883281,-0.386466,-0.945475,-0.227822
2024-01-01 00:00:10.840,-1.310581,0.717442,7.899871,-0.620499,-0.757321,-0.507627
2024-01-01 00:00:10.850,-1.276676,0.30203,6.748318,-0.71725,-0.794472,-0.188394
2024-01-01 00:00:10.860,-1.047311,0.671862,7.826898,-0.993006,-0.345602,-0.358414
2024-01-01 00:00:10.870,-1.302871,0.481947,6.568737,-1.084881,-0.721186,-0.333557
2024-01-01 00:00:10.880,-1.453499,0.843182,7.501377,-0.534332,-0.753986,-0.618337
2024-01-01 00:00:10.890,-1.405831,0.427639,7.825956,-0.336588,-0.015183,-0.627652
2024-01-01 00:00:10.900,-1.33437,0.25595,6.978138,-0.808011,-0.558087,-0.327532
2024-01-01 00:00:10.910,-1.292509,1.052469,8.066409,-0.967155,-0.348517,-0.222735
2024-01-01 00:00:10.920,-0.992999,0.632083,6.258094,-1.279966,-0.213326,-0.433419
2024-01-01 00:00:10.930,-1.195741,0.771372,7.648249,-0.892617,-0.547566,-0.073199
2024-01-01 00:00:10.940,-0.92187,1.113015,7.310802,-0.656838,0.109875,-0.203971
2024-01-01 00:00:10.950,-1.169089,0.469536,5.957145,-0.208666,0.025915,-0.440475
2024-01-01 00:00:10.960,-1.074092,0.993095,8.368694,-0.419244,0.322688,-0.289137
2024-01-01 00:00:10.970,-1.760053,0.671542,6.83494,-0.489426,-0.169841,0.088691
2024-01-01 00:00:10.980,-0.697391,0.841607,6.395124,-0.64302,0.091618,-0.45788
2024-01-01 00:00:10.990,-0.85268,0.934322,6.127033,-0.665232,0.143134,-0.18048
2024-01-01 00:00:11.000,-0.578983,0.492537,6.818417,-0.143674,0.264898,-0.295955
2024-01-01 00:00:11.010,-1.894871,0.737457,6.922917,-0.419779,-0.100329,-0.128947
2024-01-01 00:00:11.020,-0.101781,1.403429,7.117745,-0.969763,0.3538,-0.031965
2024-01-01 00:00:11.030,-0.831807,1.289416,6.980112,-0.585959,0.03022,-0.266722
2024-01-01 00:00:11.040,-0.344111,1.028631,7.588585,-0.604941,0.534766,-0.027357
2024-01-01 00:00:11.050,-1.043833,1.142601,7.136727,-0.499161,-0.031393,0.151883
2024-01-01 00:00:11.060,-0.412231,1.001974,6.407828,-0.193513,0.090355,-0.157179
2024-01-01 00:00:11.070,-0.941261,1.516113,7.52381,-0.33223,0.806942,-0.034951
2024-01-01 00:00:11.080,-0.735862,1.066205,6.448682,-0.295239,0.510915,-0.226577
2024-01-01 00:00:11.090,0.208194,1.21129,8.100243,0.082119,0.441964,-0.120236
2024-01-01 00:00:11.100,-0.471914,1.499202,7.531005,-0.390209,1.043674,-0.134548
2024-01-01 00:00:11.110,-0.271904,0.934046,8.331481,0.280447,0.840403,0.026739
2024-01-01 00:00:11.120,0.014227,1.64495,9.143381,-0.322652,1.00435,0.103289
2024-01-01 00:00:11.130,-0.058649,0.726404,8.08372,-0.101507,0.767724,-0.078351
2024-01-01 00:00:11.140,-0.120971,1.680827,9.378854,-0.162897,1.497132,0.183745
2024-01-01 00:00:11.150,0.012907,1.084676,8.749994,-0.030388,0.688909,0.198886
2024-01-01 00:00:11.160,0.785332,1.126358,10.148176,0.081354,1.283766,0.112131
2024-01-01 00:00:11.170,-0.016977,0.632994,9.179799,0.11016,0.834651,-0.076553
2024-01-01 00:00:11.180,0.132622,1.062528,9.11501,-0.155086,0.433446,-0.075178
2024-01-01 00:00:11.190,0.488918,0.884135,10.150625,-0.216094,0.959615,-0.08954
2024-01-01 00:00:11.200,0.566887,1.009039,9.725827,0.721768,0.904223,0.190362
2024-01-01 00:00:11.210,0.653898,1.143549,9.69189,0.006171,0.544214,-0.118182
2024-01-01 00:00:11.220,0.520108,1.463652,10.076186,0.332965,0.552999,0.180606
2024-01-01 00:00:11.230,-0.045844,1.228344,10.492769,-0.212999,0.749031,-0.067711
2024-01-01 00:00:11.240,0.983015,1.246307,11.426694,0.149464,0.809613,0.233216
2024-01-01 00:00:11.250,0.066562,0.8115,9.787765,0.217684,0.067003,0.127325
2024-01-01 00:00:11.260,0.629448,0.860313,11.018043,0.397417,0.906198,0.339653
2024-01-01 00:00:11.270,0.314461,1.646798,11.492742,-0.372103,0.473557,0.325473
2024-01-01 00:00:11.280,0.610043,0.867544,11.388111,0.378864,0.214806,0.383924
2024-01-01 00:00:11.290,0.800613,1.564204,12.122958,0.078189,0.730176,0.401935
2024-01-01 00:00:11.300,0.850012,0.972005,11.46986,0.47444,0.433103,0.218221
2024-01-01 00:00:11.310,0.936057,1.021572,11.504194,0.16139,0.684425,0.036417
2024-01-01 00:00:11.320,1.402809,1.316375,12.012566,0.233068,0.42889,0.065591
2024-01-01 00:00:11.330,1.045074,1.349669,11.808134,0.404306,0.256062,-0.076671
2024-01-01 00:00:11.340,0.847834,0.906193,11.590737,0.234672,0.153707,0.086327
2024-01-01 00:00:11.350,1.316225,0.792843,12.126194,0.40314,0.246827,0.271335
2024-01-01 00:00:11.360,1.439096,0.861009,11.504951,0.24714,-0.043756,0.188794
2024-01-01 00:00:11.370,0.635521,0.946281,11.533761,0.109805,-0.220409,0.257029
2024-01-01 00:00:11.380,1.315024,1.078083,11.570082,0.844321,0.078364,0.368823
2024-01-01 00:00:11.390,1.390381,0.776503,12.579798,0.286639,-0.176623,0.259716
2024-01-01 00:00:11.400,1.078084,0.92424,10.023898,0.585853,-0.197626,0.146987
2024-01-01 00:00:11.410,1.699156,1.192276,11.957848,0.837641,0.002088,0.316724
2024-01-01 00:00:11.420,1.19868,0.776269,11.689236,0.51357,-0.361291,0.19888
2024-01-01 00:00:11.430,1.326751,0.715454,10.661766,0.477868,-0.389564,0.301462
2024-01-01 00:00:11.440,1.251836,0.125403,11.658713,0.756512,-0.601298,0.551393
2024-01-01 00:00:11.450,1.34544,-0.249926,11.639014,0.994144,-0.398966,0.316754
2024-01-01 00:00:11.460,0.981791,0.613187,11.578196,0.435931,-0.471318,0.629773
2024-01-01 00:00:11.470,0.884851,0.424838,9.660254,0.703193,-0.382241,0.585111
2024-01-01 00:00:11.480,1.968175,0.254758,11.724298,0.318929,-0.797111,0.28913
2024-01-01 00:00:11.490,1.132705,0.437525,10.411117,0.663908,-0.807634,0.214436
2024-01-01 00:00:11.500,1.098981,0.301054,11.029604,0.779734,-0.531699,0.377708
2024-01-01 00:00:11.510,0.706867,0.611723,10.886754,0.565306,-0.69871,0.56248
2024-01-01 00:00:11.520,1.249238,0.253012,9.817276,0.671285,-1.015626,0.319238
2024-01-01 00:00:11.530,1.019831,-0.043461,10.477247,0.43883,-0.484849,0.531657
2024-01-01 00:00:11.540,2.065356,0.430824,9.711895,0.814283,-1.253486,0.578773
2024-01-01 00:00:11.550,1.849514,0.021585,8.591148,1.061832,-0.64505,0.28285
2024-01-01 00:00:11.560,1.258333,0.197501,10.176918,0.52528,-1.164457,0.298375
2024-01-01 00:00:11.570,2.288322,-0.150929,8.911619,0.644316,-0.378483,0.506891
2024-01-01 00:00:11.580,1.842045,-0.249887,8.671355,0.924798,-1.232587,0.422358
2024-01-01 00:00:11.590,1.380871,-0.076837,8.72449,1.100122,-0.549634,0.295641
2024-01-01 00:00:11.600,0.613588,-0.145229,8.903385,0.420505,-0.844172,0.344074
2024-01-01 00:00:11.610,2.28172,-0.051889,8.533454,0.747079,-0.896374,0.384059
2024-01-01 00:00:11.620,0.982756,-0.322886,8.682679,0.854306,-0.734346,0.157033
2024-01-01 00:00:11.630,0.880155,-0.83928,7.466941,0.751043,-0.593852,0.503125
2024-01-01 00:00:11.640,1.798625,-0.463837,7.624996,0.149189,-0.944398,0.31239
2024-01-01 00:00:11.650,2.277086,-0.140974,7.807445,0.884298,-0.884264,-0.038045
2024-01-01 00:00:11.660,1.887909,-0.512859,8.762307,1.128321,-0.475717,0.370663
2024-01-01 00:00:11.670,1.578846,-0.541432,7.513336,0.765954,-1.018799,0.257158
2024-01-01 00:00:11.680,1.565565,-0.214749,8.041391,0.466171,-0.688197,0.615297
2024-01-01 00:00:11.690,1.629915,-0.766608,7.346245,0.581702,0.271217,0.267175
2024-01-01 00:00:11.700,1.5686,-1.057353,6.952226,1.137398,-0.674742,0.182813
2024-01-01 00:00:11.710,1.371126,-0.683276,6.989077,0.906269,-0.08689,0.415579
2024-01-01 00:00:11.720,1.276941,-0.819929,6.9526,0.821591,-0.459112,0.231725
2024-01-01 00:00:11.730,1.184401,-1.003095,7.312103,0.732468,-0.122209,0.204764
2024-01-01 00:00:11.740,0.906389,-0.803273,7.685817,0.458864,-0.021181,0.388499
2024-01-01 00:00:11.750,1.034195,-0.639482,7.092414,0.55382,0.163315,0.145911
2024-01-01 00:00:11.760,0.500294,-0.824774,7.527637,0.563361,-0.102405,0.07283
2024-01-01 00:00:11.770,1.017114,-0.763674,6.339733,0.698211,0.511788,0.539308
2024-01-01 00:00:11.780,0.662599,-0.344199,6.653439,0.915153,-0.06595,0.355886
2024-01-01 00:00:11.790,0.57786,-1.022161,6.509664,0.79378,0.206252,0.217466
2024-01-01 00:00:11.800,0.981094,-0.865444,7.122781,0.134824,0.274413,0.244313
2024-01-01 00:00:11.810,1.357923,-1.129892,6.809219,0.520384,-0.003322,0.308072
2024-01-01 00:00:11.820,1.143375,-1.257701,7.479482,0.622572,0.26806,0.365191
2024-01-01 00:00:11.830,0.222256,-1.204374,6.651723,0.566412,0.440159,0.092452
2024-01-01 00:00:11.840,0.374332,-1.196042,7.286785,0.227066,0.349526,0.247109
2024-01-01 00:00:11.850,0.997625,-0.966454,7.753295,1.084983,1.122725,0.102222
2024-01-01 00:00:11.860,0.271102,-0.38979,6.364376,0.008714,0.3546,0.135645
2024-01-01 00:00:11.870,0.482014,-1.327845,8.803549,0.028209,0.907376,0.173607
2024-01-01 00:00:11.880,0.697948,-1.254813,7.628023,0.327961,0.871101,0.13378
2024-01-01 00:00:11.890,0.11052,-1.163805,6.826922,0.768903,0.693915,0.230186
2024-01-01 00:00:11.900,0.429636,-1.039395,8.193444,0.00042,0.517149,0.177798
2024-01-01 00:00:11.910,-0.131449,-1.090541,8.298517,0.112455,0.572911,-0.136769
2024-01-01 00:00:11.920,0.067166,-0.794036,8.415468,0.417401,0.662265,-0.129635
2024-01-01 00:00:11.930,0.331323,-1.915012,9.19169,0.112547,0.367195,0.003049
2024-01-01 00:00:11.940,-0.396734,-1.909163,9.248139,0.002116,0.579594,0.317177
2024-01-01 00:00:11.950,0.256145,-1.345987,9.19469,0.195797,0.471523,-0.100545
2024-01-01 00:00:11.960,0.036112,-0.870317,9.47436,0.091055,1.185073,-0.019771
2024-01-01 00:00:11.970,0.177297,-1.669626,9.366181,0.249037,1.00442,-0.084738
2024-01-01 00:00:11.980,0.003261,-2.100784,10.59657,0.282809,1.042231,-0.103136
2024-01-01 00:00:11.990,0.343422,-1.023846,9.001413,0.005269,0.983636,-0.009005
2024-01-01 00:00:12.000,-0.148909,-1.116955,10.083943,-0.02986,0.863675,0.15872
2024-01-01 00:00:12.010,-0.401442,-1.510123,10.231112,-0.080419,1.167512,0.001422
2024-01-01 00:00:12.020,-0.266368,-1.469895,10.825749,-0.042609,0.625088,-0.202976
2024-01-01 00:00:12.030,-0.176561,-1.454509,10.091171,-0.181789,0.77506,0.315194
2024-01-01 00:00:12.040,-0.406589,-1.117974,9.765769,-0.22612,0.901133,-0.101198
2024-01-01 00:00:12.050,-0.4658,-1.324794,10.972141,0.043153,0.345612,-0.214585
2024-01-01 00:00:12.060,-0.781278,-0.972681,11.192268,0.093386,1.407419,0.068993
2024-01-01 00:00:12.070,-0.822339,-1.959552,11.998236,-0.691728,0.593844,-0.22778
2024-01-01 00:00:12.080,-1.135064,-1.340773,10.610408,-0.341042,0.571994,0.077663
2024-01-01 00:00:12.090,-0.084629,-1.400407,12.062319,-0.543897,0.797184,-0.316458
2024-01-01 00:00:12.100,-1.184082,-1.116719,12.834693,-0.477065,0.655177,0.014843
2024-01-01 00:00:12.110,-1.041834,-1.176845,11.416816,-0.325674,0.376789,-0.182994
2024-01-01 00:00:12.120,-1.100108,-0.750117,10.992563,-0.285262,0.338356,-0.032653
2024-01-01 00:00:12.130,-0.583475,-1.519776,11.54228,-0.506271,-0.133556,0.046145
2024-01-01 00:00:12.140,-1.046574,-0.919342,11.8225,-0.98145,0.03852,-0.421449
2024-01-01 00:00:12.150,-0.551812,-0.735056,12.158407,-0.768473,0.240993,-0.07224
2024-01-01 00:00:12.160,-1.267891,-0.31373,11.541219,-0.326365,0.156025,-0.486581
2024-01-01 00:00:12.170,-0.976568,-0.982073,12.724532,-1.258022,0.283425,-0.443535
2024-01-01 00:00:12.180,-1.40697,-0.705725,11.243374,-0.297596,-0.118774,-0.417738
2024-01-01 00:00:12.190,-0.40245,-1.308496,10.871585,-0.48476,-0.501703,-0.231988
2024-01-01 00:00:12.200,-1.605777,-1.448009,12.393381,-0.305685,0.044029,-0.312412
2024-01-01 00:00:12.210,-1.116701,-0.438943,10.475222,-0.703049,0.074961,-0.351774
2024-01-01 00:00:12.220,-1.036438,-0.654922,11.54096,-1.186423,-0.121648,-0.313601
2024-01-01 00:00:12.230,-1.144601,-0.259567,13.280769,-0.580105,-0.447118,-0.255155
2024-01-01 00:00:12.240,-1.383452,-0.984057,11.45862,-0.384591,-0.202596,-0.25139
2024-01-01 00:00:12.250,-1.391166,-0.374095,10.735033,-0.486542,0.338927,-0.194736
2024-01-01 00:00:12.260,-1.355435,0.073373,11.193815,-0.89675,-0.540908,-0.092533
2024-01-01 00:00:12.270,-1.445136,-0.317812,11.059869,-0.721608,-0.945493,-0.374854
2024-01-01 00:00:12.280,-1.077082,-0.316513,11.027945,-0.887577,-0.808166,-0.455347
2024-01-01 00:00:12.290,-0.659319,-0.352065,11.145879,-0.969084,-0.54516,-0.290103
2024-01-01 00:00:12.300,-1.644464,-0.780491,10.04342,-0.534135,-1.138315,-0.558129
2024-01-01 00:00:12.310,-1.942866,0.14333,11.368662,-1.079882,-0.725779,-0.492055
2024-01-01 00:00:12.320,-1.506158,-0.400306,10.394267,-1.010259,-0.6993,-0.243495
2024-01-01 00:00:12.330,-0.581898,-0.019074,10.47262,-1.067898,-0.431933,-0.414565
2024-01-01 00:00:12.340,-1.773318,-0.592436,9.536473,-1.168312,-0.504438,-0.579104
2024-01-01 00:00:12.350,-0.923263,-0.430278,10.395364,-0.761772,-0.626956,-0.622658
2024-01-01 00:00:12.360,-0.912359,0.40129,9.350403,-0.509387,-1.389661,-0.392574
2024-01-01 00:00:12.370,-1.693587,-0.086178,9.447608,-0.846129,-0.619354,-0.22867
2024-01-01 00:00:12.380,-1.298638,0.501217,8.585385,-1.175254,-0.668598,-0.230127
2024-01-01 00:00:12.390,-0.923472,0.088885,8.355601,-0.5865,-0.771111,-0.381611
2024-01-01 00:00:12.400,-1.619419,-0.393269,9.090637,-0.371494,-1.252597,-0.095123
2024-01-01 00:00:12.410,-1.548986,0.473619,8.280428,-0.949685,-0.994096,-0.409785
2024-01-01 00:00:12.420,-1.670039,0.075411,7.872339,-0.901745,-1.06651,-0.411839
2024-01-01 00:00:12.430,-1.808059,0.507974,7.812094,-0.645962,-1.248656,-0.772554
2024-01-01 00:00:12.440,-1.664333,0.351456,8.381637,-0.360977,-0.711114,-0.450327
2024-01-01 00:00:12.450,-1.847428,-0.07405,7.49112,-0.886785,-0.870918,-0.250611
2024-01-01 00:00:12.460,-1.386883,0.482563,7.621761,-1.079146,0.027949,-0.138422
2024-01-01 00:00:12.470,-1.645898,1.13586,7.554553,-0.576229,-0.623591,-0.491577
2024-01-01 00:00:12.480,-1.270043,0.667867,6.362868,-0.521229,-0.207375,-0.29116
2024-01-01 00:00:12.490,-1.869796,0.544888,6.491517,-0.705258,-0.869213,-0.196364
2024-01-01 00:00:12.500,-1.180735,0.926047,7.381644,-0.831023,-0.552629,-0.344064
2024-01-01 00:00:12.510,-0.974108,0.70701,6.700852,-0.426522,-0.336447,-0.68005
2024-01-01 00:00:12.520,-1.930988,0.746036,7.610977,-0.525687,-0.526038,-0.291755
2024-01-01 00:00:12.530,-1.067687,0.393996,7.49959,-0.831366,-0.341025,-0.205414
2024-01-01 00:00:12.540,-0.73249,0.828828,7.316348,-0.607552,-0.224978,-0.452026
2024-01-01 00:00:12.550,-1.547314,1.105319,7.889821,-0.937361,-0.162925,-0.33784
2024-01-01 00:00:12.560,-0.498562,0.578649,6.826769,-0.406641,0.426021,-0.462381
2024-01-01 00:00:12.570,-0.895649,1.290311,7.228357,-0.621455,0.123721,-0.66347
2024-01-01 00:00:12.580,-1.245786,0.867608,6.564544,-0.641745,0.215784,-0.112358
2024-01-01 00:00:12.590,-0.973729,0.659558,8.264659,-0.51713,0.296968,-0.255018
2024-01-01 00:00:12.600,-0.712494,1.254512,8.051959,-0.474141,0.380354,-0.002458
2024-01-01 00:00:12.610,-0.833597,0.897037,7.027534,-0.23504,0.270211,-0.100788
2024-01-01 00:00:12.620,-0.622591,1.237259,7.308222,-0.284844,0.272678,-0.26944
2024-01-01 00:00:12.630,-1.083091,0.94664,7.931913,-0.444892,0.454312,-0.215372
2024-01-01 00:00:12.640,-0.650099,1.039381,7.205621,-0.187417,0.758995,-0.10424
2024-01-01 00:00:12.650,-1.151596,1.226918,7.040569,-0.250107,0.805628,-0.030113
2024-01-01 00:00:12.660,-0.642127,1.185967,8.009772,-0.428355,0.514994,-0.112452
2024-01-01 00:00:12.670,-0.865032,0.518184,7.710997,-0.3238,0.814514,0.019529
2024-01-01 00:00:12.680,-0.750716,0.796884,7.917832,-0.300138,0.617508,-0.176042
2024-01-01 00:00:12.690,-0.004499,1.426737,7.517292,-0.106821,0.714093,-0.26614
2024-01-01 00:00:12.700,0.001653,1.12115,7.199017,-0.294585,0.622342,-0.111136
2024-01-01 00:00:12.710,-0.109691,1.014749,8.448813,-0.26981,0.725817,-0.055326
2024-01-01 00:00:12.720,-0.647282,0.773557,8.998378,0.350871,1.132285,-0.25089
2024-01-01 00:00:12.730,-0.317388,0.864637,8.563557,0.124723,0.840841,-0.255614
2024-01-01 00:00:12.740,0.276587,0.587605,9.669119,-0.269082,0.867272,0.027642
2024-01-01 00:00:12.750,-0.039519,1.167496,8.686304,0.095205,0.482195,-0.084719
2024-01-01 00:00:12.760,0.781661,1.020227,8.689585,0.013532,0.772004,-0.032904
2024-01-01 00:00:12.770,0.166619,0.9098,9.429531,0.113332,0.789038,-0.046232
2024-01-01 00:00:12.780,0.155192,1.177497,9.617319,0.081255,0.636866,0.25155
2024-01-01 00:00:12.790,0.038665,1.303426,10.28065,0.375734,0.839122,0.228426
2024-01-01 00:00:12.800,0.252248,1.816644,9.62234,0.19601,0.710794,-0.130801
2024-01-01 00:00:12.810,0.210479,0.727726,10.988217,0.125194,0.817402,-0.009561
2024-01-01 00:00:12.820,0.569607,1.51988,11.499399,0.432158,0.802149,0.213306
2024-01-01 00:00:12.830,0.714041,1.452954,10.5714,0.260559,0.502421,0.191409
2024-01-01 00:00:12.840,0.160938,0.914453,11.448024,0.262921,0.606674,0.110057
2024-01-01 00:00:12.850,0.026265,1.194529,10.338743,0.341011,0.686304,-0.039388
2024-01-01 00:00:12.860,-0.095075,0.979889,11.660714,0.268649,0.919513,0.043645
2024-01-01 00:00:12.870,0.779944,1.154774,11.784335,0.323452,0.64023,0.083057
2024-01-01 00:00:12.880,0.269586,1.53199,11.810819,0.203067,0.359607,0.21642
2024-01-01 00:00:12.890,-0.045147,1.239444,11.442777,0.190003,0.570628,0.444456
2024-01-01 00:00:12.900,0.895869,1.187216,9.929005,0.15562,0.840631,0.099599
2024-01-01 00:00:12.910,1.682741,0.880807,11.28986,0.084106,0.583223,0.062146
2024-01-01 00:00:12.920,0.857134,0.538384,11.373435,0.238342,0.429036,0.212848
2024-01-01 00:00:12.930,1.200466,0.893237,11.239974,0.440164,0.409848,0.396626
2024-01-01 00:00:12.940,0.981965,1.288455,11.890646,0.534219,0.523319,0.037187
2024-01-01 00:00:12.950,0.963565,0.43758,11.623171,0.464536,0.366105,0.484225
2024-01-01 00:00:12.960,1.363157,0.547073,11.414857,-0.03347,0.172154,0.251923
2024-01-01 00:00:12.970,0.981573,0.86801,11.285359,0.971337,0.2307,0.178697
2024-01-01 00:00:12.980,1.216767,0.499977,11.457989,0.870649,-0.373571,0.059486
2024-01-01 00:00:12.990,1.274043,0.521627,12.436784,0.730879,-0.544782,0.415698
2024-01-01 00:00:13.000,0.964085,0.595137,11.409647,1.115761,-0.194951,0.293769
2024-01-01 00:00:13.010,1.579742,0.274245,11.428347,0.413007,-0.280612,0.35428
2024-01-01 00:00:13.020,1.203991,0.352347,11.384218,1.146694,-0.495471,0.202272
2024-01-01 00:00:13.030,1.031455,0.815265,11.731643,0.449878,-0.212513,0.297726
2024-01-01 00:00:13.040,1.512473,0.170743,11.692444,0.766189,-0.941578,0.280265
2024-01-01 00:00:13.050,1.036907,0.041436,9.650414,0.402272,-0.66349,0.345277
2024-01-01 00:00:13.060,1.385814,0.288827,11.758224,0.737514,-0.701687,0.266487
2024-01-01 00:00:13.070,1.395206,0.653717,11.846356,0.842354,-1.036577,0.142779
2024-01-01 00:00:13.080,1.79874,0.330677,10.328325,0.717955,-0.296982,0.787589
2024-01-01 00:00:13.090,1.602901,0.205397,10.211217,0.94474,-1.049471,0.178624
2024-01-01 00:00:13.100,1.443849,0.312563,10.329865,0.799478,-0.891362,0.414581
2024-01-01 00:00:13.110,1.752427,-0.270436,9.98574,0.651374,-0.547274,0.125185
2024-01-01 00:00:13.120,1.964108,0.355315,10.342345,0.646316,-0.63795,0.094452
2024-01-01 00:00:13.130,1.681805,0.27524,8.960975,0.995567,-1.096742,0.411093
2024-01-01 00:00:13.140,1.496926,-0.009525,9.224982,0.632993,-0.664232,0.424369
2024-01-01 00:00:13.150,1.038576,0.367928,10.491766,1.027634,-0.772388,0.588617
2024-01-01 00:00:13.160,1.127024,-0.319318,8.938346,1.105578,-0.266318,0.459882
2024-01-01 00:00:13.170,1.392754,0.310054,9.935923,0.382599,-0.748068,0.377417
2024-01-01 00:00:13.180,1.283697,-0.029176,9.251375,1.081646,-0.878577,0.256767
2024-01-01 00:00:13.190,1.426709,-0.223578,7.866691,1.310919,-1.046377,0.622758
2024-01-01 00:00:13.200,1.504786,-0.175473,9.020218,0.854979,-1.002139,0.535317
2024-01-01 00:00:13.210,1.660859,-0.248326,8.419404,0.936686,-1.001288,0.206508
2024-01-01 00:00:13.220,1.439012,0.103638,8.052439,1.039884,-0.425911,0.396011
2024-01-01 00:00:13.230,1.619913,-0.631344,8.263112,0.704269,-0.733268,0.408178
2024-01-01 00:00:13.240,1.455906,-0.582511,8.222571,0.810018,-0.56095,0.330376
2024-01-01 00:00:13.250,0.723408,-0.087731,8.192566,0.426021,-0.283848,0.493063
2024-01-01 00:00:13.260,1.065341,-0.621532,8.303009,0.778183,-1.208068,0.496522
2024-01-01 00:00:13.270,1.320804,-0.216274,7.741656,0.855853,-0.250941,0.33709
2024-01-01 00:00:13.280,0.922842,-0.019411,6.63428,0.847033,-0.505481,0.316866
2024-01-01 00:00:13.290,1.529123,-0.691768,7.016339,0.969902,-0.356019,0.576617
2024-01-01 00:00:13.300,1.825779,-0.407923,8.794462,0.494308,-0.614452,0.48393
2024-01-01 00:00:13.310,1.68545,-0.998592,7.486799,0.538253,-0.536177,0.346556
2024-01-01 00:00:13.320,1.151095,-0.465205,8.318125,1.127637,-0.163075,0.082499
2024-01-01 00:00:13.330,1.71257,-0.669867,7.723792,0.59752,0.37474,0.369151
2024-01-01 00:00:13.340,1.206019,-0.62472,7.045543,0.665467,0.094669,0.412442
2024-01-01 00:00:13.350,0.997385,-0.996052,7.049809,0.578109,0.226439,-0.115747
2024-01-01 00:00:13.360,0.860326,-1.33521,6.85081,0.367922,-0.071166,0.324451
2024-01-01 00:00:13.370,0.927137,-0.719117,5.917522,0.956816,-0.106298,0.212963
2024-01-01 00:00:13.380,0.853522,-1.520972,6.901103,0.395746,-0.0848,0.230708
2024-01-01 00:00:13.390,1.003879,-1.027617,7.590277,0.22177,0.054296,0.115688
2024-01-01 00:00:13.400,0.953819,-0.679072,6.642994,0.366045,-0.27196,0.217136
2024-01-01 00:00:13.410,0.850678,-0.931381,7.26262,-0.0473,0.12338,0.435362
2024-01-01 00:00:13.420,0.953216,-0.430438,7.582139,0.263998,0.226008,0.14645
2024-01-01 00:00:13.430,1.166449,-0.731826,6.705145,0.15782,0.381474,0.344762
2024-01-01 00:00:13.440,1.03034,-1.258334,7.062376,0.526622,0.514832,0.065183
2024-01-01 00:00:13.450,0.125473,-1.075129,6.86863,0.175746,0.6261,0.285863
2024-01-01 00:00:13.460,-0.302494,-1.117014,7.106216,0.537353,0.58203,0.157949
2024-01-01 00:00:13.470,0.863664,-1.595226,6.991379,0.635835,0.487043,0.195911
2024-01-01 00:00:13.480,0.002686,-1.418725,7.355826,0.451877,0.184286,0.129365
2024-01-01 00:00:13.490,0.346122,-1.319104,8.7927,0.172708,0.569835,0.209521
2024-01-01 00:00:13.500,-0.041712,-1.774228,7.677832,0.231453,0.504663,-0.28705
2024-01-01 00:00:13.510,-0.320399,-1.159796,8.42761,-0.215756,0.89377,-0.130229
2024-01-01 00:00:13.520,0.441793,-1.257628,8.264466,0.101105,1.029234,0.129837
2024-01-01 00:00:13.530,0.45958,-1.691803,9.377545,-0.111709,1.056243,-0.254831
2024-01-01 00:00:13.540,-0.066609,-1.073854,9.642406,0.245672,1.025434,-0.043542
2024-01-01 00:00:13.550,-0.83061,-0.983687,9.591385,0.683857,0.812225,0.012183
2024-01-01 00:00:13.560,-0.173964,-1.131811,9.480973,0.13414,0.719287,-0.119629
2024-01-01 00:00:13.570,0.095293,-1.296754,9.382326,-0.520099,0.661902,-0.114891
2024-01-01 00:00:13.580,-0.618453,-1.019853,9.049822,-0.144086,0.465443,0.013848
2024-01-01 00:00:13.590,-0.095497,-0.989116,10.96816,-0.054536,1.0787,0.108815
2024-01-01 00:00:13.600,-0.223623,-1.095007,9.671984,-0.094568,0.770328,-0.201971
2024-01-01 00:00:13.610,-0.073765,-1.426818,10.640933,-0.330179,0.480644,-0.159997
2024-01-01 00:00:13.620,-0.292488,-1.086831,11.039196,-0.116993,0.558918,-0.198847
2024-01-01 00:00:13.630,-0.732222,-0.79973,10.324803,-0.519504,0.517364,-0.467646
2024-01-01 00:00:13.640,-0.029546,-1.324131,11.367074,-0.475345,0.708879,-0.098302
2024-01-01 00:00:13.650,-0.559835,-0.500753,11.373604,-0.107537,0.924677,0.005714
2024-01-01 00:00:13.660,-0.569128,-1.271064,12.050971,-0.552354,0.526423,0.003277
2024-01-01 00:00:13.670,-0.94057,-1.085166,10.979027,-0.192874,0.002094,-0.294328
2024-01-01 00:00:13.680,-0.822477,-1.276451,10.654944,-0.698274,0.466236,-0.365709
2024-01-01 00:00:13.690,-1.029377,-0.985874,11.196802,0.057369,0.419602,-0.188678
2024-01-01 00:00:13.700,-0.831479,-1.55204,11.689294,-0.60474,0.344698,-0.081195
2024-01-01 00:00:13.710,-0.221906,-1.168108,11.692381,-0.493786,0.183854,-0.195707
2024-01-01 00:00:13.720,-1.349954,-1.305297,11.515713,-0.381234,0.332758,-0.188548
2024-01-01 00:00:13.730,-1.48197,-0.908908,10.739143,-0.630523,0.230887,-0.073318
2024-01-01 00:00:13.740,-0.448327,-0.621553,12.090068,-0.477875,0.142769,-0.367734
2024-01-01 00:00:13.750,-1.08102,-0.695036,12.942935,-0.393631,0.185838,-0.301731
2024-01-01 00:00:13.760,-1.28489,-1.567909,12.124903,-0.320228,-0.091592,-0.035
2024-01-01 00:00:13.770,-0.728076,-0.210035,12.200513,-0.384548,-0.17269,-0.320733
2024-01-01 00:00:13.780,-1.343644,-0.699042,12.160787,-0.646514,0.227394,-0.491881
2024-01-01 00:00:13.790,-0.530456,-0.984324,12.029424,-0.660423,-0.043662,-0.412286
2024-01-01 00:00:13.800,-0.968353,-0.66682,12.273438,-0.055724,-0.041491,-0.462227
2024-01-01 00:00:13.810,-1.410594,-0.622579,11.913628,-0.423768,-0.004889,-0.277046
2024-01-01 00:00:13.820,-0.517044,-0.83592,11.444931,-0.90891,-0.241186,-0.473619
2024-01-01 00:00:13.830,-1.514406,-0.535934,11.085912,-0.669619,-0.199522,-0.306653
2024-01-01 00:00:13.840,-1.070957,-0.736072,11.280222,-0.793488,-0.882727,-0.465261
2024-01-01 00:00:13.850,-1.25216,-0.632801,11.470689,-0.75752,-0.490099,-0.68035
2024-01-01 00:00:13.860,-0.925421,-0.674245,10.992882,-1.043923,-0.63671,-0.322282
2024-01-01 00:00:13.870,-0.856479,-0.854306,11.197285,-0.851252,-0.217838,-0.351866
2024-01-01 00:00:13.880,-1.411608,-0.336239,11.113347,-0.305943,-0.447625,-0.301752
2024-01-01 00:00:13.890,-1.704102,-0.159296,11.168169,-0.623447,-0.875214,-0.485056
2024-01-01 00:00:13.900,-1.294778,-0.134798,11.245258,-1.3992,-0.658021,-0.505137
2024-01-01 00:00:13.910,-1.706074,0.002787,10.405173,-0.479219,-0.738259,-0.33148
2024-01-01 00:00:13.920,-0.775017,-0.09944,9.459389,-0.516767,-0.690721,-0.166734
2024-01-01 00:00:13.930,-1.44045,-0.309806,9.800243,-0.883548,-1.078152,-0.395188
2024-01-01 00:00:13.940,-1.622327,0.148897,9.821825,-0.617732,-0.747471,-0.334836
2024-01-01 00:00:13.950,-1.433736,-0.463111,8.592808,-1.013983,-0.903355,-0.447805
2024-01-01 00:00:13.960,-1.971455,-0.278825,10.169695,-0.917543,-0.7793,-0.631534
2024-01-01 00:00:13.970,-1.839288,-0.250637,9.287463,-0.424949,-1.029335,-0.254678
2024-01-01 00:00:13.980,-1.076015,0.409826,9.223123,-0.865885,-0.987573,-0.262714
2024-01-01 00:00:13.990,-1.720691,0.415698,9.570852,-1.262514,-0.5357,-0.290925
2024-01-01 00:00:14.000,-1.849503,0.325901,8.283078,-0.806804,-1.07476,-0.422781
2024-01-01 00:00:14.010,-1.285263,0.547856,8.759814,-0.805296,-1.033992,-0.303266
2024-01-01 00:00:14.020,-1.045818,0.00871,8.203839,-0.479509,-0.775235,-0.255486
2024-01-01 00:00:14.030,-1.194639,0.422869,7.990045,-0.767761,-0.923372,-0.142649
2024-01-01 00:00:14.040,-1.080872,0.32604,7.501542,-0.86779,-0.915189,-0.232918
2024-01-01 00:00:14.050,-1.675367,0.662395,8.686235,-0.490997,-0.626893,-0.366557
2024-01-01 00:00:14.060,-1.886936,0.417868,7.41745,-0.710764,-0.98461,-0.566719
2024-01-01 00:00:14.070,-0.840495,0.380356,7.873327,-0.916018,-0.811744,-0.340908
2024-01-01 00:00:14.080,-1.453441,0.700746,6.333677,-0.426185,0.00583,-0.318981
2024-01-01 00:00:14.090,-1.400758,0.843124,7.902663,-0.651833,-0.337618,-0.24377
2024-01-01 00:00:14.100,-0.818526,0.42067,7.734243,-0.683745,-0.581116,-0.139155
2024-01-01 00:00:14.110,-1.057151,0.642788,7.124702,-0.623166,-0.229464,-0.348094
2024-01-01 00:00:14.120,-1.058768,0.382491,6.876131,-0.917442,-0.129657,-0.00974
2024-01-01 00:00:14.130,-0.425186,-0.011568,7.165472,-0.762813,0.041325,-0.579343
2024-01-01 00:00:14.140,-1.370942,0.834671,8.163859,-0.61015,-0.173572,-0.242622
2024-01-01 00:00:14.150,-0.781965,0.992687,5.910077,-0.638911,0.168717,-0.4149
2024-01-01 00:00:14.160,-1.046036,0.922862,7.300242,-0.250421,-0.518177,-0.570348
2024-01-01 00:00:14.170,-0.929613,0.292291,6.374504,-0.491579,-0.205747,-0.303232
2024-01-01 00:00:14.180,-0.444699,0.803462,6.886166,-0.308761,0.165831,-0.479819
2024-01-01 00:00:14.190,-0.756444,0.273362,6.797344,-0.495884,0.273032,-0.273331
2024-01-01 00:00:14.200,-0.698858,1.378469,6.749763,-0.209134,0.027256,-0.231388
2024-01-01 00:00:14.210,-0.463584,0.668936,7.046025,-0.348064,0.383052,-0.055942
2024-01-01 00:00:14.220,-0.917094,1.397024,6.508801,-0.417637,0.223261,-0.436634
2024-01-01 00:00:14.230,-1.032259,1.328233,7.793327,-0.397207,0.368654,-0.060676
2024-01-01 00:00:14.240,-1.052249,0.796744,6.348466,-0.604778,0.750045,-0.168372
2024-01-01 00:00:14.250,-1.321757,0.747881,7.752695,-0.211155,0.773983,-0.014614
2024-01-01 00:00:14.260,0.140157,1.211937,7.408676,-0.319126,0.346991,-0.2193
2024-01-01 00:00:14.270,-0.910723,0.870922,7.087753,-0.405285,0.377754,-0.33973
2024-01-01 00:00:14.280,-0.546311,1.170615,7.996719,0.02655,0.581104,-0.307657
2024-01-01 00:00:14.290,-0.509302,1.008904,7.191935,-0.53251,0.714803,-0.303749
2024-01-01 00:00:14.300,-0.24773,0.631499,8.241144,-0.295129,0.590133,-0.023081
2024-01-01 00:00:14.310,-0.012169,0.506992,7.614896,0.098169,1.04321,0.142158
2024-01-01 00:00:14.320,0.061596,1.252601,8.835383,-0.04889,0.893483,-0.148628
2024-01-01 00:00:14.330,-0.385169,1.022755,8.262379,-0.108547,0.926743,0.046079
2024-01-01 00:00:14.340,-0.180825,1.030076,8.715536,-0.002493,0.522058,-0.261138
2024-01-01 00:00:14.350,0.035519,1.407687,9.320581,0.011049,1.138787,0.010146
2024-01-01 00:00:14.360,-0.091379,1.552028,8.930646,-0.381479,0.144944,0.099128
2024-01-01 00:00:14.370,0.617288,1.117438,9.520388,-0.058133,1.056252,-0.202628
2024-01-01 00:00:14.380,0.285527,1.094369,8.915256,0.464763,1.073813,-0.000266
2024-01-01 00:00:14.390,0.429686,1.342083,10.288097,-0.072842,0.719423,0.153382
2024-01-01 00:00:14.400,0.463012,0.778604,11.10153,0.043627,1.127909,-0.378465
2024-01-01 00:00:14.410,0.699887,1.244436,11.851537,0.018819,0.771046,0.27743
2024-01-01 00:00:14.420,0.410247,1.333036,10.545097,0.163254,0.77469,0.145556
2024-01-01 00:00:14.430,-0.04982,1.35971,11.100625,0.069724,0.81152,0.215261
2024-01-01 00:00:14.440,0.600516,0.560993,9.851886,0.367352,1.486333,0.060926
2024-01-01 00:00:14.450,0.288491,0.89822,11.812794,0.324777,0.984574,-0.120684
2024-01-01 00:00:14.460,0.38649,0.846009,11.558255,0.49819,0.778504,0.232511
2024-01-01 00:00:14.470,0.830887,1.120595,10.999287,0.07095,0.326037,0.154454
2024-01-01 00:00:14.480,1.112242,1.214303,12.068271,0.276964,0.537717,0.185842
2024-01-01 00:00:14.490,0.738419,1.496884,11.357722,0.333422,0.243008,0.358067
2024-01-01 00:00:14.500,0.890063,0.875548,11.342443,0.530963,0.593521,0.322835
2024-01-01 00:00:14.510,1.427533,0.849345,11.938675,0.245299,0.362408,0.509988
2024-01-01 00:00:14.520,0.964517,1.316549,11.160977,0.698382,-0.01657,0.257812
2024-01-01 00:00:14.530,1.837974,1.032145,12.361569,0.791209,0.220471,0.143621
2024-01-01 00:00:14.540,1.171007,1.293529,11.257672,0.271757,-0.077776,0.231225
2024-01-01 00:00:14.550,0.400996,0.968498,11.284426,0.419822,0.105937,0.33362
2024-01-01 00:00:14.560,1.323541,0.502024,11.369668,0.432282,-0.213505,0.435011
2024-01-01 00:00:14.570,1.234241,0.415183,12.280266,1.245209,-0.05874,0.073501
2024-01-01 00:00:14.580,1.591507,0.314367,11.500407,0.500575,0.055536,0.305306
2024-01-01 00:00:14.590,1.413197,0.941926,11.060018,1.047451,-0.210995,0.555454
2024-01-01 00:00:14.600,1.164789,1.062226,11.415002,0.330408,-0.359878,0.287502
2024-01-01 00:00:14.610,0.818528,1.221699,11.662471,0.417671,-0.274137,0.472194
2024-01-01 00:00:14.620,1.205724,0.880032,10.948207,0.510419,-0.211446,0.415003
2024-01-01 00:00:14.630,1.011068,0.935189,10.868155,0.486578,-0.720931,0.492379
2024-01-01 00:00:14.640,1.133405,0.37066,12.553417,0.645872,-0.434612,0.234959
2024-01-01 00:00:14.650,1.568357,0.155224,10.796981,0.549395,-0.222933,0.242484
2024-01-01 00:00:14.660,1.970475,0.713878,10.958927,0.534369,-0.458023,0.372643
2024-01-01 00:00:14.670,1.545649,0.540152,10.789976,1.040292,-0.632389,0.145504
2024-01-01 00:00:14.680,1.008278,0.402432,10.605513,1.066928,-0.528274,0.340029
2024-01-01 00:00:14.690,1.599559,0.441187,11.015206,1.00743,-0.612199,0.422984
2024-01-01 00:00:14.700,1.877641,0.376204,11.02307,0.909037,-0.569541,0.656714
2024-01-01 00:00:14.710,1.258007,0.618233,10.154428,0.807949,-1.291843,0.452789
2024-01-01 00:00:14.720,1.434854,0.575062,9.457845,0.666015,-1.197272,0.48892
2024-01-01 00:00:14.730,1.494933,0.303022,10.649296,0.556267,-0.575734,0.571949
2024-01-01 00:00:14.740,1.2208,0.346469,9.702776,0.888357,-1.216169,0.254105
2024-01-01 00:00:14.750,1.725817,0.199776,10.511362,0.506016,-0.747165,0.374949
2024-01-01 00:00:14.760,1.457667,-0.140035,8.127909,0.551519,-0.938009,0.763811
2024-01-01 00:00:14.770,1.645589,0.178046,9.273793,1.087563,-1.096222,0.387799
2024-01-01 00:00:14.780,1.184561,-0.514435,10.026157,1.272593,-0.751688,0.56618
2024-01-01 00:00:14.790,1.336186,0.173066,8.583704,0.892615,-0.775566,0.541706
2024-01-01 00:00:14.800,1.733933,-0.548251,8.464724,1.066534,-0.279844,0.173243
2024-01-01 00:00:14.810,1.340116,-0.150651,8.566866,0.722862,-0.940232,0.438734
2024-01-01 00:00:14.820,2.062272,-0.53607,7.918572,0.443093,-0.395741,0.410768
2024-01-01 00:00:14.830,1.302929,-0.1622,7.882938,0.922537,-0.634717,0.434241
2024-01-01 00:00:14.840,1.504172,-0.383579,7.705601,0.902606,-0.850652,0.267025
2024-01-01 00:00:14.850,1.732459,-0.896434,7.392306,0.767812,-0.443909,0.207409
2024-01-01 00:00:14.860,0.887965,-0.335755,8.269367,0.677749,-0.456621,0.29777
2024-01-01 00:00:14.870,0.744304,-0.678583,7.71421,0.966199,-0.539721,0.348154
2024-01-01 00:00:14.880,0.800692,-0.283321,7.47742,0.465392,-0.429334,0.53366
2024-01-01 00:00:14.890,1.748591,-0.588877,7.675833,0.503455,-0.589306,0.621046
2024-01-01 00:00:14.900,1.083526,-0.511344,6.990527,0.428868,-0.587929,0.549937
2024-01-01 00:00:14.910,2.140057,-0.95696,6.628763,0.685076,-0.13068,0.460944
2024-01-01 00:00:14.920,1.013281,-0.885169,6.656138,0.373769,-0.313597,0.17222
2024-01-01 00:00:14.930,1.239564,-0.883543,6.936338,0.45559,-0.213107,0.251991
2024-01-01 00:00:14.940,1.677091,-0.525367,6.315658,0.430149,-0.057409,0.334783
