timestamp,acc_x,acc_y,acc_z,gyro_x,gyro_y,gyro_z
2024-01-01 00:00:00.000,0.262638,-0.807003,8.867487,0.191351,0.234963,-0.021513
2024-01-01 00:00:00.010,-0.073107,-0.363943,9.276233,0.268353,-0.375796,-0.004898
2024-01-01 00:00:00.020,0.342465,-0.174955,9.013017,0.124672,-0.065559,0.009644
2024-01-01 00:00:00.030,0.805302,0.798492,9.346396,-0.485624,-0.008332,0.142029
2024-01-01 00:00:00.040,-0.123809,0.235422,9.628829,-0.038856,0.003182,-0.112083
2024-01-01 00:00:00.050,-0.1238,-0.564909,10.518233,-0.288927,0.036099,-0.126952
2024-01-01 00:00:00.060,0.835009,0.205593,9.538299,-0.050651,0.122088,0.185493
2024-01-01 00:00:00.070,0.405781,-0.65451,8.468561,0.245001,-0.007081,-0.069397
2024-01-01 00:00:00.080,-0.248235,0.457978,10.774497,0.076288,-0.073612,-0.189455
2024-01-01 00:00:00.090,0.286879,-0.199286,9.101822,0.287023,-0.081518,-0.072769
2024-01-01 00:00:00.100,-0.245032,-0.039608,9.760323,0.085438,-0.122303,-0.049508
2024-01-01 00:00:00.110,-0.246255,0.560812,10.18777,-0.324581,0.157509,0.233244
2024-01-01 00:00:00.120,0.127938,-0.54447,9.97887,-0.630212,-0.129306,0.138724
2024-01-01 00:00:00.130,-1.011647,-0.590981,10.735676,0.037202,0.169354,0.172128
2024-01-01 00:00:00.140,-0.91205,-0.246863,10.215237,-0.053482,0.0038,0.122996
2024-01-01 00:00:00.150,-0.29731,0.439234,9.081332,-0.244236,-0.104251,0.141937
2024-01-01 00:00:00.160,-0.535534,-0.642683,11.653064,-0.425157,0.123681,-0.103212
2024-01-01 00:00:00.170,0.166158,-1.198002,9.974406,-0.183686,-0.145491,-0.02979
2024-01-01 00:00:00.180,-0.480118,-0.19084,9.68535,-0.048623,0.127637,-0.148487
2024-01-01 00:00:00.190,-0.746756,0.233386,10.625481,0.166469,0.042545,-0.031573
2024-01-01 00:00:00.200,0.774962,0.507711,10.021036,0.047158,-0.119265,0.102616
2024-01-01 00:00:00.210,-0.119379,-0.195917,10.147747,0.402017,0.105727,0.020187
2024-01-01 00:00:00.220,0.035706,-0.174033,11.918388,-0.258901,0.109318,0.196722
2024-01-01 00:00:00.230,-0.753336,0.4881,9.577247,0.220265,0.231504,-0.171212
2024-01-01 00:00:00.240,-0.287842,-0.790901,9.541174,0.011825,0.193229,0.075036
2024-01-01 00:00:00.250,0.05865,-0.164344,9.908625,0.173667,0.098255,-0.187245
2024-01-01 00:00:00.260,-0.608588,0.080549,10.716502,-0.109129,-0.225518,0.014126
2024-01-01 00:00:00.270,0.19865,0.19002,8.535472,0.26792,0.489717,0.11105
2024-01-01 00:00:00.280,-0.317588,-0.215648,8.14714,0.073806,-0.280723,-0.032175
2024-01-01 00:00:00.290,-0.154233,0.014569,9.3133,-0.169861,0.189853,0.082669
2024-01-01 00:00:00.300,-0.318152,-1.052562,8.427701,-0.003006,0.086257,-0.14396
2024-01-01 00:00:00.310,0.979392,-0.278439,9.450593,-0.059889,-0.234828,-0.249553
2024-01-01 00:00:00.320,-0.007137,0.191834,10.235115,0.122295,-0.02486,0.083554
2024-01-01 00:00:00.330,-0.559265,-0.41551,9.056426,-0.294944,-0.015751,0.261602
2024-01-01 00:00:00.340,0.434921,0.02495,8.602905,-0.007338,0.261117,-0.149407
2024-01-01 00:00:00.350,-0.645521,0.189027,9.868659,0.098827,-0.142662,0.183329
2024-01-01 00:00:00.360,0.110437,-0.144898,10.539712,0.008256,-0.052389,0.006514
2024-01-01 00:00:00.370,-1.036176,0.072106,8.376052,0.336735,-0.467214,-0.200354
2024-01-01 00:00:00.380,-0.702278,-0.407236,10.503917,0.193506,0.346953,-0.169726
2024-01-01 00:00:00.390,0.10409,-0.087397,10.501441,-0.00187,-0.214094,0.002368
2024-01-01 00:00:00.400,0.390464,0.258121,10.617156,0.054172,0.065382,-0.060669
2024-01-01 00:00:00.410,0.090611,0.0664,10.840834,0.073916,-0.020282,-0.196937
2024-01-01 00:00:00.420,-0.061149,-0.248103,11.672904,0.100825,-0.0196,-0.254106
2024-01-01 00:00:00.430,-0.159209,0.094844,9.508746,-0.456414,0.161972,-0.127008
2024-01-01 00:00:00.440,-0.781769,0.30228,9.902698,-0.075382,0.334252,0.029071
2024-01-01 00:00:00.450,-0.380618,-0.867125,9.457693,-0.37111,0.050299,-0.00096
2024-01-01 00:00:00.460,-0.243563,0.490288,9.811672,0.31957,0.131016,-0.075186
2024-01-01 00:00:00.470,0.558953,-0.142236,11.106811,-0.015212,0.065778,0.030283
2024-01-01 00:00:00.480,2.061688,0.179982,13.842118,-0.048335,0.203506,0.156004
2024-01-01 00:00:00.490,0.947793,0.506435,14.251552,0.224199,-0.092583,0.059119
2024-01-01 00:00:00.500,2.051359,-0.580218,16.145095,0.105581,0.215078,-0.018196
2024-01-01 00:00:00.510,1.676388,-0.300094,15.842951,-0.282159,0.2221,0.139211
2024-01-01 00:00:00.520,1.522077,-0.122056,14.672791,-0.017726,0.216507,-0.143978
2024-01-01 00:00:00.530,0.323424,-0.331528,10.532824,-0.083792,-0.13203,-0.033738
2024-01-01 00:00:00.540,0.545141,0.733878,10.098669,-0.436133,-0.033668,-0.030163
2024-01-01 00:00:00.550,0.492414,-0.362415,11.079232,-0.172569,0.047893,-0.185543
2024-01-01 00:00:00.560,-0.443736,-0.234996,9.873035,-0.045885,-0.274168,-0.062981
2024-01-01 00:00:00.570,-0.163496,0.086457,10.677685,-0.028738,0.318984,-0.311244
2024-01-01 00:00:00.580,0.175156,-0.508509,12.045142,-0.370558,-0.002455,0.286827
2024-01-01 00:00:00.590,0.515819,-0.167373,10.315992,0.287916,0.056786,-0.140612
2024-01-01 00:00:00.600,-0.253363,0.134283,9.851732,-0.025526,-0.115401,0.237917
2024-01-01 00:00:00.610,-0.098167,-0.1408,10.42119,0.009388,-0.265376,0.005713
2024-01-01 00:00:00.620,-0.584975,-0.039503,9.500972,0.10016,-0.120806,0.08473
2024-01-01 00:00:00.630,-0.632494,-0.223907,11.830221,-0.197019,0.043841,-0.07332
2024-01-01 00:00:00.640,0.429623,-0.640621,9.96234,0.114089,0.134686,0.031189
2024-01-01 00:00:00.650,0.717112,0.136034,9.579098,-0.091769,0.032358,0.097573
2024-01-01 00:00:00.660,-0.038075,0.742337,9.103007,-0.224146,0.069345,0.099683
2024-01-01 00:00:00.670,0.530618,0.007784,10.738248,0.143362,-0.067405,0.116216
2024-01-01 00:00:00.680,0.191215,0.095287,10.543641,0.372918,0.09925,-0.05525
2024-01-01 00:00:00.690,-0.341107,0.293022,9.389238,0.181207,0.296567,-0.072054
2024-01-01 00:00:00.700,0.191088,-0.536927,10.297678,0.230744,0.140958,-0.239126
2024-01-01 00:00:00.710,0.813237,0.720164,8.533762,-0.130158,0.161908,0.078483
2024-01-01 00:00:00.720,-0.018943,0.085585,9.966485,-0.399405,0.058803,0.162357
2024-01-01 00:00:00.730,0.827305,0.690275,10.193032,0.372534,-0.300631,0.242397
2024-01-01 00:00:00.740,-1.38519,-0.310073,11.254401,0.513629,-0.208933,0.045776
2024-01-01 00:00:00.750,0.434581,0.76904,9.157887,0.385702,0.090975,-0.114972
2024-01-01 00:00:00.760,0.046026,0.327891,8.728514,-0.083946,-0.002188,-0.254564
2024-01-01 00:00:00.770,-0.1581,0.233936,9.052468,-0.288659,0.087969,0.15625
2024-01-01 00:00:00.780,0.048519,0.098992,8.679263,-0.266421,0.335285,-0.269441
2024-01-01 00:00:00.790,-1.050927,-0.105128,10.940812,-0.420933,0.145207,-0.051091
2024-01-01 00:00:00.800,-0.116152,0.507825,11.120149,-0.026845,0.251777,-0.033646
2024-01-01 00:00:00.810,0.188823,0.059372,10.080903,0.401419,0.018936,-0.010418
2024-01-01 00:00:00.820,0.781436,-0.83207,10.843216,-0.035416,-0.161443,0.00537
2024-01-01 00:00:00.830,-0.274035,-0.47257,9.923329,0.075581,-0.011573,0.020722
2024-01-01 00:00:00.840,-0.427491,-0.078613,9.729536,0.343899,-0.16095,-0.362304
2024-01-01 00:00:00.850,-0.265304,0.13113,9.52825,-0.101024,0.311659,0.002198
2024-01-01 00:00:00.860,0.484019,-0.023937,9.547409,0.508883,0.158078,-0.334436
2024-01-01 00:00:00.870,0.173827,0.515625,8.50056,0.498024,0.104102,0.109833
2024-01-01 00:00:00.880,-0.280111,-0.825316,10.03356,-0.032778,0.247189,-0.083269
2024-01-01 00:00:00.890,0.27139,0.060738,9.775878,-0.144384,-0.404011,-0.323556
2024-01-01 00:00:00.900,0.05133,-0.769005,10.440575,0.17431,0.117628,-0.122131
2024-01-01 00:00:00.910,0.512171,0.321358,9.889121,-0.086881,-0.262129,-0.085511
2024-01-01 00:00:00.920,-0.371211,-0.039956,9.672353,-0.289139,-0.001451,0.178605
2024-01-01 00:00:00.930,-0.173251,0.177495,9.072971,0.32031,-0.062342,0.029496
2024-01-01 00:00:00.940,-0.207327,-0.365422,9.871042,0.304112,0.132347,0.051667
2024-01-01 00:00:00.950,-0.773834,0.541214,10.434549,0.038878,0.045637,0.177183
2024-01-01 00:00:00.960,0.156574,0.44065,8.842735,-0.315716,0.269023,-0.014422
2024-01-01 00:00:00.970,0.138033,0.246839,9.884003,-0.307382,-0.120379,0.113128
2024-01-01 00:00:00.980,0.002704,-0.054786,10.007154,0.026807,0.141823,0.102579
2024-01-01 00:00:00.990,-0.124038,0.24528,9.202517,-0.124968,0.032445,-0.19297
2024-01-01 00:00:01.000,-0.748377,-0.299016,9.312674,-0.085273,-0.327058,0.220948
2024-01-01 00:00:01.010,-0.222416,0.3619,10.005097,0.255491,-0.183723,-0.213045
2024-01-01 00:00:01.020,-0.18121,0.69773,8.851126,0.183295,-0.029976,0.137605
2024-01-01 00:00:01.030,-0.424204,0.452868,10.106035,0.344536,0.222458,-0.227561
2024-01-01 00:00:01.040,-0.08528,-0.308622,9.05253,-0.247656,0.092745,0.090186
2024-01-01 00:00:01.050,0.213642,0.15288,10.709174,-0.085798,-0.2335,0.279287
2024-01-01 00:00:01.060,2.877321,-0.546999,16.957802,0.189745,-0.028063,-0.031947
2024-01-01 00:00:01.070,1.972308,0.242121,14.2518,0.11202,0.403561,-0.038453
2024-01-01 00:00:01.080,2.01618,0.190605,15.43194,0.383095,0.022245,0.091566
2024-01-01 00:00:01.090,1.840637,-0.790932,14.365176,0.105134,-0.065465,-0.049409
2024-01-01 00:00:01.100,0.86545,-0.491435,15.860647,0.462027,0.098348,0.272742
2024-01-01 00:00:01.110,-0.014019,-0.119768,8.739591,0.135004,0.152679,0.028829
2024-01-01 00:00:01.120,0.031847,-0.127264,10.216576,0.265542,-0.091234,-0.048025
2024-01-01 00:00:01.130,1.302439,-0.511609,9.071451,-0.080879,0.100515,-0.081043
2024-01-01 00:00:01.140,-0.101711,0.164538,9.634891,0.003572,-0.065778,-0.139942
2024-01-01 00:00:01.150,0.159443,0.106373,8.937753,0.227736,0.143866,-0.094163
2024-01-01 00:00:01.160,-0.018354,-0.082176,10.505708,0.403245,0.033939,-0.052601
2024-01-01 00:00:01.170,-0.617939,-0.3197,9.101915,0.182309,0.096394,-0.073146
2024-01-01 00:00:01.180,0.604268,0.443603,10.276962,-0.020793,-0.151837,-0.098726
2024-01-01 00:00:01.190,0.397585,0.700237,9.518893,0.344334,-0.164257,0.314826
2024-01-01 00:00:01.200,0.418258,-0.204547,9.713156,-0.547995,0.189099,-0.154514
2024-01-01 00:00:01.210,-0.480839,-0.258947,9.935001,-0.355559,-0.015879,0.021995
2024-01-01 00:00:01.220,0.741727,0.207781,9.165496,0.170409,0.057007,0.088878
2024-01-01 00:00:01.230,-0.741229,-0.151446,9.987971,0.003527,-0.061279,0.094516
2024-01-01 00:00:01.240,0.310301,-0.058965,11.104663,0.151378,0.179745,-0.008791
2024-01-01 00:00:01.250,1.158203,0.312873,9.151732,0.016102,-0.121562,-0.036105
2024-01-01 00:00:01.260,-0.523746,-0.807658,10.801351,0.142736,-0.02712,0.067732
2024-01-01 00:00:01.270,-0.29943,0.557642,11.077391,-0.203601,0.157199,0.039978
2024-01-01 00:00:01.280,0.052691,0.030744,9.119533,0.142622,0.234594,-0.038844
2024-01-01 00:00:01.290,-0.266213,-0.174062,8.579024,0.248604,-0.104752,-0.234282
2024-01-01 00:00:01.300,-0.819913,-0.037746,10.065459,0.305138,0.391937,-0.070189
2024-01-01 00:00:01.310,0.036253,-0.015892,9.346893,0.503389,0.062648,-0.171983
2024-01-01 00:00:01.320,-0.561693,-0.732298,11.390838,0.061025,-0.208586,-0.100074
2024-01-01 00:00:01.330,0.250412,0.632359,9.839447,0.068478,0.07381,0.004983
2024-01-01 00:00:01.340,-0.486146,0.017481,9.131339,-0.380793,-0.0766,0.05381
2024-01-01 00:00:01.350,0.819528,0.18739,8.839503,-0.132853,0.086814,0.267068
2024-01-01 00:00:01.360,1.465855,0.402506,15.90206,-0.048271,-0.008571,-0.080611
2024-01-01 00:00:01.370,1.70971,-0.431952,14.496778,0.26258,0.014855,0.116194
2024-01-01 00:00:01.380,2.310147,0.200279,15.017079,-0.15275,-0.182319,0.045894
2024-01-01 00:00:01.390,1.22918,-0.113212,15.788609,0.199085,0.198012,0.1944
2024-01-01 00:00:01.400,2.000269,0.358184,14.570317,-0.000405,-0.231225,0.086434
2024-01-01 00:00:01.410,0.691152,-0.899817,9.771144,-0.044292,-0.221753,-0.151272
2024-01-01 00:00:01.420,-0.849957,-0.041917,9.795983,0.062223,0.073472,-0.258457
2024-01-01 00:00:01.430,0.097625,-0.254993,10.388093,-0.097789,0.320569,0.046689
2024-01-01 00:00:01.440,0.137413,0.182847,10.30977,-0.107259,-0.070519,-0.079268
2024-01-01 00:00:01.450,0.413389,0.198829,9.623784,-0.426196,0.140194,-0.147047
2024-01-01 00:00:01.460,-0.654038,-0.299326,9.863847,-0.061989,0.214668,-0.190137
2024-01-01 00:00:01.470,-0.698191,-0.30125,9.495475,-0.119992,0.162937,0.024146
2024-01-01 00:00:01.480,0.275977,-0.046811,8.55994,-0.128995,-0.062242,0.226156
2024-01-01 00:00:01.490,0.157031,-0.37928,10.02793,0.104218,-0.218209,-0.061301
2024-01-01 00:00:01.500,0.132448,0.356159,11.410794,0.164658,-0.44151,0.088541
2024-01-01 00:00:01.510,0.183184,-0.156175,9.062374,0.058049,-0.052568,-0.01534
2024-01-01 00:00:01.520,-0.359563,-1.229656,9.156017,0.248854,0.235617,-0.193407
2024-01-01 00:00:01.530,0.122804,-0.15855,9.073364,0.14389,-0.224833,0.110222
2024-01-01 00:00:01.540,0.154962,-0.439304,10.423005,-0.073764,0.140042,-0.164204
2024-01-01 00:00:01.550,-0.377713,-0.69003,10.189419,-0.115714,-0.190031,0.003244
2024-01-01 00:00:01.560,0.986528,-0.523431,9.675877,0.078206,0.021215,-0.051228
2024-01-01 00:00:01.570,0.250539,0.04628,9.033356,0.143442,0.141558,0.133962
2024-01-01 00:00:01.580,-0.629902,0.562015,9.888151,0.349461,-0.131899,-0.158723
2024-01-01 00:00:01.590,0.347153,0.132477,8.48633,0.297793,0.034097,0.05863
2024-01-01 00:00:01.600,-0.515363,-0.256551,9.931339,-0.135368,-0.083018,-0.12597
2024-01-01 00:00:01.610,0.416171,0.192847,10.54731,-0.025502,0.14103,-0.076666
2024-01-01 00:00:01.620,0.612607,-0.194195,8.751486,0.167754,0.047063,-0.54528
2024-01-01 00:00:01.630,-0.433936,-0.293816,8.51349,0.266999,0.011302,0.313815
2024-01-01 00:00:01.640,0.509385,-0.488295,11.146204,0.234742,0.31167,0.082584
2024-01-01 00:00:01.650,0.218258,-0.741024,9.292451,-0.015969,0.132461,-0.115102
2024-01-01 00:00:01.660,0.434664,-0.164938,10.771012,-0.313506,-0.13807,-0.168698
2024-01-01 00:00:01.670,1.002929,0.066857,9.679718,-0.249734,-0.017173,-0.074347
2024-01-01 00:00:01.680,-0.129749,-0.040872,9.672986,0.068158,-0.01518,0.107532
2024-01-01 00:00:01.690,-0.398538,-0.175954,10.180897,0.085556,0.016064,-0.283813
2024-01-01 00:00:01.700,-0.470331,-0.400051,9.062137,-0.27467,0.504902,-0.021238
2024-01-01 00:00:01.710,-0.43136,0.257288,9.922093,0.011142,0.07417,0.265596
2024-01-01 00:00:01.720,-0.040768,-0.557147,9.48726,0.157806,-0.407181,-0.170092
2024-01-01 00:00:01.730,0.180384,0.32826,8.692863,-0.287807,-0.10856,0.012058
2024-01-01 00:00:01.740,0.1463,-0.423938,10.09551,0.276249,-0.386474,0.330496
2024-01-01 00:00:01.750,0.437373,-0.31828,9.587242,-0.094383,-0.06596,0.094823
2024-01-01 00:00:01.760,0.006875,-0.62045,9.677157,0.314403,-0.397462,0.018889
2024-01-01 00:00:01.770,0.768556,-0.212093,8.786204,-0.133363,-0.174318,0.075995
2024-01-01 00:00:01.780,-0.139937,0.412557,11.156325,-0.256656,-0.304144,-0.06013
2024-01-01 00:00:01.790,1.438289,0.218111,10.5517,-0.114534,0.076832,0.194945
2024-01-01 00:00:01.800,0.330822,0.413873,10.625676,-0.023787,0.000108,-0.0599
2024-01-01 00:00:01.810,-0.453222,0.220866,9.551594,-0.09712,0.060592,-0.293877
2024-01-01 00:00:01.820,-0.566234,-0.466852,8.347111,-0.054,-0.02091,-0.058695
2024-01-01 00:00:01.830,0.255107,-0.139924,11.462168,0.083491,-0.27886,-0.14501
2024-01-01 00:00:01.840,-0.118156,-0.330024,9.758312,-0.042795,0.102704,-0.042179
2024-01-01 00:00:01.850,0.377528,0.562833,9.176515,-0.016528,0.384445,-0.038863
2024-01-01 00:00:01.860,0.250224,-0.506242,10.162614,-0.427307,0.081843,0.179613
2024-01-01 00:00:01.870,-0.038508,0.378034,10.797384,0.097925,-0.085185,0.104294
2024-01-01 00:00:01.880,-0.447742,0.377719,9.790499,-0.022301,-0.285613,0.03949
2024-01-01 00:00:01.890,-0.800975,0.773929,10.891675,0.402573,-0.181613,-0.000442
2024-01-01 00:00:01.900,-0.236095,-0.173297,10.726218,-0.234891,0.090608,-0.158829
2024-01-01 00:00:01.910,0.452821,0.301312,8.899382,-0.452074,0.214624,-0.327176
2024-01-01 00:00:01.920,0.113202,0.965139,9.239974,0.154517,0.052173,0.016974
2024-01-01 00:00:01.930,-0.658684,-0.261262,10.620076,0.086632,0.159977,0.119196
2024-01-01 00:00:01.940,0.091569,-0.649322,7.51513,-0.252108,0.141536,-0.01625
2024-01-01 00:00:01.950,2.083737,-0.795244,14.85356,-0.382437,0.101307,-0.080228
2024-01-01 00:00:01.960,1.41266,0.301477,13.769517,0.384349,-0.131695,0.069675
2024-01-01 00:00:01.970,1.961282,-0.796573,14.576835,0.353528,0.034785,-0.0125
2024-01-01 00:00:01.980,1.910778,-0.157491,14.727198,-0.621864,-0.169676,0.252862
2024-01-01 00:00:01.990,1.275654,0.184983,14.676925,-0.114556,0.003486,0.184909
2024-01-01 00:00:02.000,0.18918,0.078329,9.342787,0.416048,0.066173,0.143926
2024-01-01 00:00:02.010,0.296515,0.179963,8.881816,-0.119016,0.335757,0.11366
2024-01-01 00:00:02.020,0.572663,0.094029,11.748957,-0.122653,-0.261946,-0.193525
2024-01-01 00:00:02.030,0.557198,0.54096,11.389873,-0.07069,0.096302,0.099449
2024-01-01 00:00:02.040,-0.728443,-0.40283,8.826892,-0.280224,0.296247,0.056449
2024-01-01 00:00:02.050,-0.495875,-0.286369,11.148471,-0.426194,0.15177,0.090964
2024-01-01 00:00:02.060,0.272325,-0.326835,9.472052,0.263137,0.166589,0.073891
2024-01-01 00:00:02.070,0.271664,0.351171,9.919293,-0.460734,0.117539,0.067914
2024-01-01 00:00:02.080,0.272331,0.380869,9.75647,0.061818,0.259667,0.40513
2024-01-01 00:00:02.090,2.037132,0.190868,9.251853,0.221645,-0.217496,-0.011428
2024-01-01 00:00:02.100,0.301858,0.500618,10.642339,-0.362807,-0.277185,0.140451
2024-01-01 00:00:02.110,0.60043,-0.498311,9.9165,-0.231067,-0.001267,-0.070648
2024-01-01 00:00:02.120,0.504428,0.705236,9.406837,0.303295,-0.432232,0.118596
2024-01-01 00:00:02.130,0.344423,0.64433,8.706317,0.133223,0.246129,0.140898
2024-01-01 00:00:02.140,-0.166699,0.311168,9.054019,-0.154321,0.244143,0.054664
2024-01-01 00:00:02.150,0.401305,0.753701,8.421392,0.300562,-0.08667,0.250387
2024-01-01 00:00:02.160,-0.408631,-0.700752,9.820341,0.301634,-0.074154,-0.132641
2024-01-01 00:00:02.170,-0.125218,-0.221842,8.797621,0.067263,-0.014469,-0.073083
2024-01-01 00:00:02.180,-0.256636,-0.311033,9.585336,-0.22504,0.010404,0.031857
2024-01-01 00:00:02.190,0.043291,0.305186,10.969106,-0.103362,0.025435,0.132121
2024-01-01 00:00:02.200,1.223876,-0.44421,10.824607,0.071597,0.111646,0.026914
2024-01-01 00:00:02.210,-0.987316,0.32042,9.782694,-0.047149,-0.034525,0.192864
2024-01-01 00:00:02.220,0.36286,0.579737,9.736326,0.234739,0.188639,-0.099253
2024-01-01 00:00:02.230,-0.852724,0.294071,11.400374,-0.382444,0.08919,-0.171087
2024-01-01 00:00:02.240,-0.249534,0.120027,10.25056,-0.373566,-0.121393,0.046219
2024-01-01 00:00:02.250,2.455783,-0.41787,14.702676,0.045218,0.267023,-0.011577
2024-01-01 00:00:02.260,1.913988,-0.358218,13.773589,-0.122886,-0.271651,0.08143
2024-01-01 00:00:02.270,1.310142,0.528589,15.313217,-0.156762,-0.018433,-0.00411
2024-01-01 00:00:02.280,1.501783,0.329665,15.681608,-0.442014,0.193383,-0.051003
2024-01-01 00:00:02.290,2.239337,-0.016505,14.445623,0.004886,-0.144615,-0.011241
2024-01-01 00:00:02.300,-0.386181,-0.176776,10.056358,-0.013189,0.061911,0.004327
2024-01-01 00:00:02.310,0.114452,-0.856917,9.502417,0.16337,0.108668,-0.045747
2024-01-01 00:00:02.320,0.024096,-0.452971,9.654309,0.017227,-0.172105,-0.03047
2024-01-01 00:00:02.330,-0.344534,0.80853,7.705303,-0.033151,-0.014496,-0.060539
2024-01-01 00:00:02.340,1.13361,-0.541633,9.622373,0.29425,-0.031301,0.1285
2024-01-01 00:00:02.350,0.335185,0.08015,10.630086,-0.328117,-0.110348,0.029103
2024-01-01 00:00:02.360,-1.070794,0.426149,9.275833,0.134097,0.460335,0.338513
2024-01-01 00:00:02.370,0.098588,-0.530832,9.854437,-0.417787,-0.152621,0.024106
2024-01-01 00:00:02.380,-0.34992,0.078133,9.170466,-0.20959,0.200986,-0.082629
2024-01-01 00:00:02.390,0.450724,0.396738,10.114934,-0.303164,-0.07856,0.400601
2024-01-01 00:00:02.400,-0.419045,0.005287,9.626821,0.195486,-0.217327,0.062044
2024-01-01 00:00:02.410,-0.060667,1.213334,9.015402,-0.016353,0.020563,0.148519
2024-01-01 00:00:02.420,0.267012,-0.705817,10.937339,-0.003376,0.129819,0.088815
2024-01-01 00:00:02.430,0.457768,0.447842,10.595876,-0.276683,0.184102,0.093452
2024-01-01 00:00:02.440,-0.634657,-0.073095,9.298249,-0.074923,0.312453,0.080348
2024-01-01 00:00:02.450,-0.176868,0.326522,10.231129,-0.190866,0.589049,-0.165313
2024-01-01 00:00:02.460,-0.251127,0.186673,10.264651,0.095864,0.050103,0.055129
2024-01-01 00:00:02.470,-0.345448,-0.310125,10.353387,-0.247773,-0.132618,-0.198729
2024-01-01 00:00:02.480,0.933484,0.096865,8.37666,0.332449,0.090575,-0.026154
2024-01-01 00:00:02.490,0.214134,-0.785892,10.661589,-0.418895,-0.053243,-0.108843
2024-01-01 00:00:02.500,-0.666692,0.255174,9.328035,-0.20163,0.185193,0.053621
2024-01-01 00:00:02.510,0.48532,0.126121,9.507278,0.4193,-0.259433,0.050119
2024-01-01 00:00:02.520,1.12209,0.270153,12.041648,-0.108785,0.473667,0.072172
2024-01-01 00:00:02.530,0.545916,0.447584,10.065385,-0.32872,0.17121,0.043094
2024-01-01 00:00:02.540,-0.803367,0.155503,9.483171,0.054768,-0.336801,-0.091024
2024-01-01 00:00:02.550,-0.256039,0.062642,7.944321,-0.118848,-0.141806,-0.039151
2024-01-01 00:00:02.560,0.669879,-0.372692,10.98574,-0.208968,0.163216,0.138059
2024-01-01 00:00:02.570,-0.37418,-0.301269,8.671953,-0.273968,0.235269,0.160179
2024-01-01 00:00:02.580,0.23467,0.501989,8.961091,0.692093,-0.254448,-0.172017
2024-01-01 00:00:02.590,0.409588,0.60757,9.529676,-0.062888,0.142605,-0.229639
2024-01-01 00:00:02.600,-0.490114,-0.100721,11.008284,-0.481392,-0.389468,-0.109033
2024-01-01 00:00:02.610,-0.031474,0.019459,10.464161,0.373427,-0.017867,0.156781
2024-01-01 00:00:02.620,-1.71382,-0.382652,9.676469,0.152768,0.222409,0.182233
2024-01-01 00:00:02.630,-0.541645,0.496076,10.070815,-0.191617,-0.110303,-0.138707
2024-01-01 00:00:02.640,-0.133545,0.281471,9.302074,-0.23328,-0.301384,0.046096
2024-01-01 00:00:02.650,-0.659765,0.821135,9.928147,0.168368,0.029243,0.275165
2024-01-01 00:00:02.660,0.863137,-0.371531,9.872043,-0.06173,-0.120944,0.062297
2024-01-01 00:00:02.670,-0.756187,-0.159897,10.629579,-0.481494,0.125912,0.213225
2024-01-01 00:00:02.680,-0.232674,0.097902,10.628233,0.44681,-0.177065,0.149809
2024-01-01 00:00:02.690,0.069129,0.273465,10.227905,-0.108498,-0.154527,-0.13653
2024-01-01 00:00:02.700,0.762073,-0.091227,9.503454,0.373893,-0.4042,-0.028497
2024-01-01 00:00:02.710,-0.759212,-0.369263,10.437582,0.319609,0.033989,0.005213
2024-01-01 00:00:02.720,0.615023,0.372835,9.732195,-0.250252,-0.032181,0.01562
2024-01-01 00:00:02.730,0.005411,0.30504,8.8947,0.258297,-0.237677,0.137449
2024-01-01 00:00:02.740,-0.518973,-0.387584,9.468819,-0.162861,0.03876,0.061303
2024-01-01 00:00:02.750,0.244337,0.573352,9.88151,-0.466675,0.205414,-0.44043
2024-01-01 00:00:02.760,0.105253,0.494994,10.580043,-0.10615,-0.043114,-0.196926
2024-01-01 00:00:02.770,-0.317365,0.056807,9.654735,0.099409,0.053633,-0.328107
2024-01-01 00:00:02.780,0.036908,0.03367,8.787018,-0.115684,0.054662,0.026305
2024-01-01 00:00:02.790,-0.203735,0.234366,9.858003,-0.076762,-0.240866,0.036073
2024-01-01 00:00:02.800,0.060022,-0.3645,9.905984,0.285892,0.411317,0.042484
2024-01-01 00:00:02.810,0.350102,0.012703,9.967219,0.026623,-0.09417,-0.143839
2024-01-01 00:00:02.820,0.838606,-0.910458,10.588211,-0.210825,0.131223,0.101122
2024-01-01 00:00:02.830,-0.654495,0.370741,10.672009,0.175508,0.153843,0.107439
2024-01-01 00:00:02.840,3.007841,-0.660512,14.477298,0.049419,-0.027919,-0.188272
2024-01-01 00:00:02.850,0.847834,0.635947,14.458743,-0.630401,0.121359,-0.219906
2024-01-01 00:00:02.860,1.799744,-0.139641,14.099992,0.107088,0.049164,-2e-05
2024-01-01 00:00:02.870,2.191073,-0.089535,15.571198,0.097957,-0.283528,0.268767
2024-01-01 00:00:02.880,2.028574,-0.265531,16.205702,0.00503,-0.066455,0.254961
2024-01-01 00:00:02.890,-0.329252,-0.12184,9.543441,0.222925,-0.12251,0.084511
2024-01-01 00:00:02.900,-0.110045,0.600039,9.60575,-0.168098,-0.092349,-0.1095
2024-01-01 00:00:02.910,-0.260674,-1.052343,11.050898,0.084125,-0.260801,0.133026
2024-01-01 00:00:02.920,-0.311627,0.540156,10.237702,-0.39174,0.225287,-0.067864
2024-01-01 00:00:02.930,0.449227,0.142984,10.179055,0.101773,0.320399,-0.115126
2024-01-01 00:00:02.940,0.188772,-0.51057,8.802485,0.488265,0.195601,-0.321595
2024-01-01 00:00:02.950,-0.366376,-0.454857,10.384204,-0.248714,0.254106,0.015357
2024-01-01 00:00:02.960,0.475663,0.709114,9.023951,-0.189951,-0.068927,-0.09448
2024-01-01 00:00:02.970,0.162485,-0.399949,8.850619,-0.177504,-0.127251,0.014465
2024-01-01 00:00:02.980,0.429801,-0.487867,9.516631,0.0325,-0.155717,-0.344904
2024-01-01 00:00:02.990,0.332916,0.481084,9.314419,-0.265759,0.128813,0.025474
2024-01-01 00:00:03.000,-0.438331,0.143208,9.622527,0.105312,0.045413,-0.364668
2024-01-01 00:00:03.010,-0.296196,-0.396743,8.59093,0.21171,-0.015444,0.163191
2024-01-01 00:00:03.020,0.395131,0.091632,10.621159,0.133587,0.25903,0.078284
2024-01-01 00:00:03.030,0.322733,-0.433893,10.764023,-0.442104,0.080988,-0.0418
2024-01-01 00:00:03.040,-0.011052,0.465647,8.162548,0.248792,-0.167732,0.084408
2024-01-01 00:00:03.050,0.062037,0.44896,10.637775,0.234342,-0.136182,-0.146711
2024-01-01 00:00:03.060,0.675565,0.225039,9.124293,0.20754,0.136399,0.010856
2024-01-01 00:00:03.070,-0.312793,0.152983,10.535001,0.093211,0.208347,0.119216
2024-01-01 00:00:03.080,0.289278,0.744983,9.752094,0.055047,0.110336,-0.464143
2024-01-01 00:00:03.090,-0.106909,-0.000133,9.834344,0.258097,0.379378,-0.067084
2024-01-01 00:00:03.100,-0.115099,-0.499933,9.653407,0.480878,0.327001,-0.003397
2024-01-01 00:00:03.110,0.580978,0.190127,10.835461,-0.23826,0.088207,-0.029444
2024-01-01 00:00:03.120,0.436439,0.882398,8.761309,0.269531,-0.167716,0.218565
2024-01-01 00:00:03.130,0.430143,-0.429243,10.324233,-0.021554,-0.261998,-0.168585
2024-01-01 00:00:03.140,2.570272,-0.152899,15.911725,-0.032418,-0.077476,-0.093174
2024-01-01 00:00:03.150,1.891106,0.176157,15.586024,-0.384133,0.150643,-0.28738
2024-01-01 00:00:03.160,2.240583,-0.022802,16.946695,-0.071197,0.365329,0.226543
2024-01-01 00:00:03.170,1.715946,-0.415514,14.532511,-0.249316,0.083489,-0.036944
2024-01-01 00:00:03.180,2.051403,0.474546,15.78988,-0.115964,0.233745,-0.065761
2024-01-01 00:00:03.190,-0.068813,0.981377,9.720247,-0.274547,-0.049061,-0.007872
2024-01-01 00:00:03.200,0.051287,0.082964,10.853462,-0.112227,0.124554,0.095435
2024-01-01 00:00:03.210,0.314689,-0.382421,9.803495,-0.101528,0.164671,0.052105
2024-01-01 00:00:03.220,-0.432634,-0.65521,9.481857,0.024189,-0.395919,0.397183
2024-01-01 00:00:03.230,1.10635,0.109124,10.914937,-0.403687,-0.082688,0.06809
2024-01-01 00:00:03.240,-0.531932,0.46694,9.394139,-0.36138,0.18994,-0.069787
2024-01-01 00:00:03.250,-0.642002,0.200996,8.614834,0.090479,0.054894,-0.084204
2024-01-01 00:00:03.260,0.612351,-0.001017,9.372748,-0.19936,-0.239303,-0.058914
2024-01-01 00:00:03.270,0.418592,-0.249262,10.333702,0.268632,-0.486024,-0.225276
2024-01-01 00:00:03.280,0.330003,-0.461985,10.987665,0.056317,-0.073156,0.00598
2024-01-01 00:00:03.290,0.332238,0.3531,9.904015,0.151691,-0.014317,0.11752
2024-01-01 00:00:03.300,-0.006475,0.386525,10.925195,0.352673,-0.176785,-0.092005
2024-01-01 00:00:03.310,-0.474423,-0.653844,8.660984,-0.077428,0.028617,-0.121107
2024-01-01 00:00:03.320,0.040082,0.672502,9.434999,-0.143622,0.101277,0.227392
2024-01-01 00:00:03.330,-0.358049,0.242832,9.565865,0.217926,0.134137,-0.213972
2024-01-01 00:00:03.340,0.515595,0.592029,9.713083,0.127378,-0.471184,-0.310173
2024-01-01 00:00:03.350,-0.077757,-0.56772,9.881144,-0.046833,-0.262857,-0.172935
2024-01-01 00:00:03.360,-0.436482,-0.577744,10.394511,0.347864,-0.060925,-0.231065
2024-01-01 00:00:03.370,-0.169933,-0.063014,9.433693,-0.053061,0.114435,0.057934
2024-01-01 00:00:03.380,0.218338,0.212678,9.927618,0.008193,0.097847,-0.054106
2024-01-01 00:00:03.390,-0.298069,0.759861,9.771826,0.005306,0.094374,-0.032953
2024-01-01 00:00:03.400,-0.434749,0.298671,9.026697,-0.233648,-0.076684,0.17294
2024-01-01 00:00:03.410,0.12885,-0.102654,9.713838,0.019396,-0.065527,-0.1037
2024-01-01 00:00:03.420,0.129526,-0.434154,9.688464,0.34919,-0.145666,0.116263
2024-01-01 00:00:03.430,-0.268046,0.52029,9.670342,0.111242,0.153639,0.226698
2024-01-01 00:00:03.440,-0.249062,-0.40807,9.836869,0.007766,-0.184098,-0.068349
2024-01-01 00:00:03.450,0.122696,0.688842,9.87402,-0.040442,0.170007,0.110553
2024-01-01 00:00:03.460,-0.765675,-0.120295,9.444278,0.082717,0.041571,-0.036273
2024-01-01 00:00:03.470,-0.744196,0.672816,10.886717,0.187442,-0.009009,0.138615
2024-01-01 00:00:03.480,-0.379877,0.287188,8.820619,0.15231,-0.131342,-0.235723
2024-01-01 00:00:03.490,-0.11286,-0.057949,9.200059,-0.082966,-0.271108,-0.246827
2024-01-01 00:00:03.500,0.164392,-0.219705,12.161849,0.081195,-0.129531,-0.05869
2024-01-01 00:00:03.510,0.780095,-0.144204,8.931859,0.119985,-0.066001,-0.133339
2024-01-01 00:00:03.520,0.453488,0.181178,8.664724,-0.251799,-0.473805,-0.077506
2024-01-01 00:00:03.530,-0.084567,0.032637,10.431367,0.042058,-0.039471,-0.032929
2024-01-01 00:00:03.540,-0.010055,-0.251182,8.052757,-0.540326,0.184871,0.108002
2024-01-01 00:00:03.550,-0.530087,-0.070062,9.610958,0.120633,0.113444,-0.061149
2024-01-01 00:00:03.560,-0.009789,0.033238,11.625368,0.165086,-0.099241,-0.123579
2024-01-01 00:00:03.570,-0.152628,-0.900455,8.502984,0.186887,0.009387,-0.052727
2024-01-01 00:00:03.580,0.170637,0.193805,8.133258,-0.098762,-0.111233,-0.115372
2024-01-01 00:00:03.590,-0.437398,-0.414422,8.541693,0.077262,0.029752,-0.140101
2024-01-01 00:00:03.600,0.274604,-0.48786,10.570012,0.355988,0.308022,-0.241953
2024-01-01 00:00:03.610,0.810436,-0.713747,10.761561,0.353442,0.1937,0.010422
2024-01-01 00:00:03.620,-0.057507,-0.758817,9.37635,-0.007293,0.104159,-0.085306
2024-01-01 00:00:03.630,0.212405,-0.573354,10.387998,0.03483,-0.098577,0.144942
2024-01-01 00:00:03.640,0.364914,-0.299916,10.986156,0.277728,0.149988,-0.217109
2024-01-01 00:00:03.650,-0.212145,0.826229,11.322095,-0.375201,-0.337375,-0.081313
2024-01-01 00:00:03.660,0.118489,-0.222447,9.6016,-0.080769,-0.050471,0.271936
2024-01-01 00:00:03.670,0.006658,0.075188,7.862955,0.333893,0.116742,-0.140941
2024-01-01 00:00:03.680,0.051646,0.169404,9.115536,0.2438,0.148084,-0.03548
2024-01-01 00:00:03.690,-0.408729,0.055441,9.448924,0.092316,0.133977,-0.182377
2024-01-01 00:00:03.700,0.01296,-0.032759,9.590938,-0.376458,0.058966,-0.202264
2024-01-01 00:00:03.710,0.263317,-0.505609,9.651071,-0.012478,-0.039145,0.232097
2024-01-01 00:00:03.720,0.767292,0.613742,10.756585,-0.147479,0.107595,0.025656
2024-01-01 00:00:03.730,2.387214,0.764444,16.058166,0.08276,-0.190572,0.020052
2024-01-01 00:00:03.740,3.018495,-0.711765,14.834764,-0.202337,-0.168935,-0.254447
2024-01-01 00:00:03.750,1.474265,-0.433164,15.909318,-0.256431,0.012347,0.053811
2024-01-01 00:00:03.760,2.34124,-0.11836,15.282582,-0.516216,0.03464,0.173613
2024-01-01 00:00:03.770,1.976942,-0.407999,15.034572,0.305451,-0.365123,0.172422
2024-01-01 00:00:03.780,1.157858,0.214023,10.576936,-0.099943,0.091029,0.10025
2024-01-01 00:00:03.790,-0.427388,-0.308059,9.871125,0.039286,0.154546,-0.169423
2024-01-01 00:00:03.800,-0.444003,0.915819,11.550908,-0.00056,-0.015457,0.046969
2024-01-01 00:00:03.810,-0.316929,0.503602,8.593104,-0.266858,0.474893,0.100138
2024-01-01 00:00:03.820,-1.12301,0.089919,9.374165,-0.314766,-0.136587,-0.269167
2024-01-01 00:00:03.830,-0.277993,0.434415,9.702965,-0.251329,-0.072217,-0.168192
2024-01-01 00:00:03.840,-0.401391,0.467796,10.181777,-0.180792,-0.079013,0.133224
2024-01-01 00:00:03.850,0.079521,-0.23855,10.882695,0.091652,-0.015238,0.131407
2024-01-01 00:00:03.860,0.180703,-0.34526,9.789359,-0.198929,-0.065745,-0.232287
2024-01-01 00:00:03.870,0.992025,0.033055,8.606794,0.436623,-0.281362,0.119253
2024-01-01 00:00:03.880,0.502537,0.364472,10.522767,0.256788,-0.10931,0.014296
2024-01-01 00:00:03.890,-0.305038,0.058823,10.448695,0.20209,-0.019524,0.117151
2024-01-01 00:00:03.900,-0.475037,-0.66707,8.167188,-0.029915,0.245714,-0.095178
2024-01-01 00:00:03.910,0.260102,-0.339595,9.806782,0.37857,0.440449,0.096778
2024-01-01 00:00:03.920,-0.698073,-0.031291,8.46474,-0.054501,0.267095,0.126574
2024-01-01 00:00:03.930,0.968384,-0.032007,9.247705,-0.007815,-0.155076,-0.0527
2024-01-01 00:00:03.940,0.623629,0.834385,9.046224,0.042494,-0.139162,0.002663
2024-01-01 00:00:03.950,-0.248077,-0.586273,10.494638,0.175456,-0.031866,-0.097278
2024-01-01 00:00:03.960,-0.90582,0.213864,9.908838,0.159227,0.356912,0.247746
2024-01-01 00:00:03.970,0.71586,0.629895,8.72239,-0.118781,-0.033085,-0.018041
2024-01-01 00:00:03.980,-0.060563,0.960823,10.554536,-0.133248,-0.265501,-0.138304
2024-01-01 00:00:03.990,0.654495,-0.17106,8.597,0.159976,-0.100235,-0.107374
2024-01-01 00:00:04.000,-0.843054,0.207875,10.089276,0.178809,0.151411,0.019016
2024-01-01 00:00:04.010,-0.31692,0.241009,9.121347,-0.098338,0.137988,0.113
2024-01-01 00:00:04.020,0.002773,0.082689,9.500637,-0.396797,-0.040043,-0.200374
2024-01-01 00:00:04.030,1.904841,-0.041812,15.406613,-0.051829,0.136683,0.277149
2024-01-01 00:00:04.040,1.642028,0.184418,15.421146,0.155881,-0.454634,0.046301
2024-01-01 00:00:04.050,2.209332,-1.07114,16.111076,0.451354,0.020766,0.069968
2024-01-01 00:00:04.060,1.315496,0.288515,14.910413,-0.299489,0.172137,-0.014578
2024-01-01 00:00:04.070,1.804717,0.053373,15.239257,-0.106643,-0.166573,0.002889
2024-01-01 00:00:04.080,0.063606,-0.094107,9.439674,-0.097351,-0.167268,-0.022242
2024-01-01 00:00:04.090,0.27201,0.865823,9.963963,0.338951,-0.37329,0.152669
2024-01-01 00:00:04.100,0.376266,-0.285497,10.181805,-0.008735,0.317979,-0.001189
2024-01-01 00:00:04.110,-0.594655,-0.170501,9.72683,-0.226832,-0.144031,0.115058
2024-01-01 00:00:04.120,-0.811163,0.842427,8.284027,0.139674,0.048209,-0.065077
2024-01-01 00:00:04.130,0.675572,-0.351962,10.090424,-0.10116,0.120783,0.029346
2024-01-01 00:00:04.140,0.175711,-0.232699,10.118419,-0.306097,0.302414,-0.120588
2024-01-01 00:00:04.150,-0.395762,-0.062192,9.234573,-0.223193,-0.03078,0.182479
2024-01-01 00:00:04.160,0.820172,0.355631,8.723409,0.43351,-0.107886,-0.125062
2024-01-01 00:00:04.170,0.061163,0.0879,11.058594,0.096052,0.034614,-0.048747
2024-01-01 00:00:04.180,0.623553,-0.546781,10.225763,0.02694,0.256816,-0.047244
2024-01-01 00:00:04.190,0.0357,-0.225107,9.616197,-0.062473,-0.034035,-0.053093
2024-01-01 00:00:04.200,1.08962,-0.256911,8.84807,0.073037,-0.190974,0.108374
2024-01-01 00:00:04.210,0.928136,-0.032665,9.114745,0.070059,-0.308152,-0.047499
2024-01-01 00:00:04.220,-0.13164,0.180132,10.911991,0.073042,-0.244259,0.209089
2024-01-01 00:00:04.230,0.513718,0.176901,9.926462,0.028711,0.172878,-0.122771
2024-01-01 00:00:04.240,0.341243,-0.751253,9.344203,0.2172,-0.064125,0.025407
2024-01-01 00:00:04.250,0.723664,0.450047,10.241197,0.005776,-0.121504,-0.116368
2024-01-01 00:00:04.260,-0.510203,0.106837,9.121019,-0.244485,-0.143193,0.063146
2024-01-01 00:00:04.270,0.36275,0.585657,11.079713,-0.153106,0.017009,-0.002392
2024-01-01 00:00:04.280,0.559642,0.187896,10.954469,-0.494755,-0.047891,-0.023259
2024-01-01 00:00:04.290,-0.929934,0.46586,9.415278,0.506704,-0.054626,0.178271
2024-01-01 00:00:04.300,-0.625648,0.197349,9.278145,0.215689,0.269865,-0.098151
2024-01-01 00:00:04.310,-1.078244,0.569453,7.595059,-0.207518,0.307603,0.087977
2024-01-01 00:00:04.320,-0.142449,0.220912,8.556583,-0.070461,-0.322004,-0.115344
2024-01-01 00:00:04.330,0.3794,-0.041418,8.676809,-0.159219,0.065519,0.016903
2024-01-01 00:00:04.340,0.794371,0.96124,9.924371,0.385637,-0.155372,-0.179336
2024-01-01 00:00:04.350,0.039178,0.376063,9.534006,-0.354969,-0.04965,-0.099378
2024-01-01 00:00:04.360,0.86113,0.242694,8.671846,0.028619,0.061856,-0.012321
2024-01-01 00:00:04.370,-0.729729,-0.539877,9.572135,-0.027132,-0.042544,0.272197
2024-01-01 00:00:04.380,-0.900663,-0.544954,10.237515,0.20671,0.046092,0.015121
2024-01-01 00:00:04.390,-0.029371,0.123819,10.256552,-0.026002,0.134594,0.2482
2024-01-01 00:00:04.400,0.203075,0.061555,8.202879,-0.439552,0.058915,0.033048
2024-01-01 00:00:04.410,-0.017287,-0.259774,9.701489,-0.062779,-0.129367,-0.058063
2024-01-01 00:00:04.420,-1.09316,0.059636,8.639694,-0.243041,-0.12584,0.230903
2024-01-01 00:00:04.430,-0.047122,0.671989,10.572862,0.019895,-0.287941,0.065553
2024-01-01 00:00:04.440,-0.689738,0.294155,10.473388,0.358544,-0.170784,-0.096408
2024-01-01 00:00:04.450,0.354089,-0.482647,9.050269,-0.434856,0.392414,0.070586
2024-01-01 00:00:04.460,0.193839,-0.047168,9.161926,-0.200056,-0.158401,-0.043889
2024-01-01 00:00:04.470,-0.496961,-0.340501,9.419768,-0.138173,-0.238676,-0.298355
2024-01-01 00:00:04.480,-0.271707,-0.163997,7.904137,-0.095408,0.063986,0.140396
2024-01-01 00:00:04.490,-0.560059,-0.174959,10.094229,0.185031,-0.022073,0.16424
2024-01-01 00:00:04.500,-0.033142,-0.202044,9.579174,-0.043386,-0.039119,0.275691
2024-01-01 00:00:04.510,0.505032,-0.530922,10.630768,0.103951,0.281809,0.063322
2024-01-01 00:00:04.520,-0.521203,-0.053998,8.880746,-0.156443,0.109825,-0.037309
2024-01-01 00:00:04.530,0.266515,-0.237137,9.286222,0.057481,-0.105999,0.125248
2024-01-01 00:00:04.540,-0.280374,-1.239157,8.53548,0.194449,-0.084895,0.127473
2024-01-01 00:00:04.550,-0.419232,0.868407,8.96037,-0.183075,-0.100517,0.245742
2024-01-01 00:00:04.560,-0.056592,0.46055,8.810043,0.19534,0.174948,-0.006694
2024-01-01 00:00:04.570,-0.547384,-0.159175,10.652594,0.013093,-0.06163,-0.024837
2024-01-01 00:00:04.580,-0.292742,0.00796,9.21927,0.261365,-0.358631,-0.107332
2024-01-01 00:00:04.590,-0.633378,-0.49561,9.915053,-0.050355,-0.009664,0.080619
2024-01-01 00:00:04.600,1.038848,0.717291,9.487874,0.095311,-0.307405,-0.232239
2024-01-01 00:00:04.610,0.018646,0.802553,8.736032,-0.010152,0.436846,0.116413
2024-01-01 00:00:04.620,1.51002,0.066281,14.837618,-0.024053,-0.193134,0.088175
2024-01-01 00:00:04.630,1.993142,0.432953,15.486841,0.064733,-0.032373,0.087761
2024-01-01 00:00:04.640,1.820607,0.074146,13.958236,0.134202,0.051641,0.020734
2024-01-01 00:00:04.650,1.763162,-0.565435,15.664509,-0.312391,-0.057732,0.229947
2024-01-01 00:00:04.660,2.204741,-0.174201,14.261136,0.358408,-0.058006,0.130799
2024-01-01 00:00:04.670,0.400532,0.055806,9.401396,-0.464916,0.084365,-0.091062
2024-01-01 00:00:04.680,-0.280502,-0.192274,10.258958,-0.171203,0.305243,-0.088377
2024-01-01 00:00:04.690,-0.304464,-0.09249,9.248733,-0.023567,0.153502,-0.131951
2024-01-01 00:00:04.700,-0.145434,-0.038662,9.841788,0.103089,0.295703,0.082692
2024-01-01 00:00:04.710,-1.217141,-0.034212,9.543772,0.394043,-0.209324,-0.150021
2024-01-01 00:00:04.720,-0.801157,0.022105,9.919445,-0.464573,0.063473,0.162509
2024-01-01 00:00:04.730,0.722735,-0.448636,7.795895,-0.126924,0.031049,0.198446
2024-01-01 00:00:04.740,0.869777,-0.303298,8.262089,-0.531708,0.070218,-0.131852
2024-01-01 00:00:04.750,-0.131678,-0.543379,10.331108,0.007905,0.275246,-0.027832
2024-01-01 00:00:04.760,0.304854,0.413616,10.687455,0.067921,-0.044158,0.002493
2024-01-01 00:00:04.770,0.164574,-0.890689,9.039728,0.397699,-0.081101,0.132597
2024-01-01 00:00:04.780,1.627958,0.487969,9.603552,0.030159,0.106796,0.241402
2024-01-01 00:00:04.790,0.591975,0.586426,10.059332,0.261006,-0.355641,-0.252824
2024-01-01 00:00:04.800,-0.067636,-0.127822,10.396462,0.145959,-0.04737,-0.047727
2024-01-01 00:00:04.810,-0.505242,-1.101127,8.094585,-0.108812,-0.02684,-0.039903
2024-01-01 00:00:04.820,-0.849408,-0.152834,9.06041,-0.35224,-0.184072,-0.2101
2024-01-01 00:00:04.830,0.107581,-0.02715,9.528638,0.068751,0.211412,-0.072767
2024-01-01 00:00:04.840,-0.39992,-0.427483,10.404857,-0.373026,-0.212448,0.064165
2024-01-01 00:00:04.850,-0.752017,-0.217937,11.923672,0.323802,-0.027175,-0.041802
2024-01-01 00:00:04.860,-0.341875,0.647273,9.617107,-0.040516,0.058631,-0.231693
2024-01-01 00:00:04.870,-0.571869,0.281264,8.619697,0.298794,0.27069,0.431112
2024-01-01 00:00:04.880,0.892076,-0.391091,10.150319,-0.120054,-0.002111,0.039927
2024-01-01 00:00:04.890,0.466167,-0.675784,10.927562,0.067213,0.187231,0.016754
2024-01-01 00:00:04.900,-0.004216,-0.138328,9.90138,0.052337,0.140119,-0.164689
2024-01-01 00:00:04.910,0.78252,-0.090292,9.042975,-0.011261,0.024692,0.039106
2024-01-01 00:00:04.920,1.920908,0.209892,15.790463,-0.108165,-0.217903,-0.024632
2024-01-01 00:00:04.930,1.424596,-0.226439,15.54136,0.098114,-0.286916,-0.283279
2024-01-01 00:00:04.940,2.685352,0.216364,14.111936,-0.231541,0.021301,-0.160538
2024-01-01 00:00:04.950,2.164949,0.81857,15.302686,-0.302359,-0.108539,0.119239
2024-01-01 00:00:04.960,1.331556,0.344957,15.823687,0.310707,0.183852,0.291603
2024-01-01 00:00:04.970,-0.100642,-0.020341,10.809879,0.181792,0.149171,0.055075
2024-01-01 00:00:04.980,-0.462983,-0.077473,9.753784,0.016473,-0.036922,0.165462
2024-01-01 00:00:04.990,-0.731155,-0.150873,9.507065,0.416286,-0.231543,-0.023363
2024-01-01 00:00:05.000,0.489716,0.499411,10.848274,-0.066941,0.102147,-0.012982
2024-01-01 00:00:05.010,1.009604,-0.265354,8.786204,0.330676,-0.20359,0.163647
2024-01-01 00:00:05.020,-0.739493,0.019129,10.181038,0.043894,-0.151693,0.249417
2024-01-01 00:00:05.030,0.29767,0.021657,8.650957,-0.256188,-0.195883,0.195165
2024-01-01 00:00:05.040,-0.344027,-0.212255,10.711308,0.46201,-0.0277,-0.159954
2024-01-01 00:00:05.050,-0.257568,-0.580553,9.591693,0.247678,0.234038,-0.010044
2024-01-01 00:00:05.060,-0.313228,0.136618,10.883221,-0.030255,-0.001008,0.041629
2024-01-01 00:00:05.070,-0.456835,-0.025805,10.225735,0.181793,-0.088644,-0.038952
2024-01-01 00:00:05.080,0.025656,0.211602,8.775156,-0.100926,-0.305123,0.058179
2024-01-01 00:00:05.090,-0.439365,-0.225713,11.015235,0.207287,0.110425,0.123087
2024-01-01 00:00:05.100,0.143004,0.516407,11.122353,-0.59777,-0.156081,0.150421
2024-01-01 00:00:05.110,-0.026563,-0.370875,10.556414,-0.25495,0.023504,0.252881
2024-01-01 00:00:05.120,-0.126344,0.724193,9.165697,0.244815,-0.070844,-0.049416
2024-01-01 00:00:05.130,-0.479874,-0.73925,9.551112,-0.062414,0.167635,-0.204605
2024-01-01 00:00:05.140,-0.304968,0.183908,9.933031,0.051886,-0.031447,0.053735
2024-01-01 00:00:05.150,0.399413,0.201107,9.214661,-0.336696,-0.011785,0.282572
2024-01-01 00:00:05.160,0.26486,-0.336521,11.241725,0.461967,0.097149,-0.071546
2024-01-01 00:00:05.170,-0.516882,0.179519,9.9321,0.297632,0.421388,0.103027
2024-01-01 00:00:05.180,0.052522,0.541236,7.522968,-0.050171,0.177689,0.104362
2024-01-01 00:00:05.190,0.397296,-0.937714,10.097095,-0.101174,-0.017721,0.028716
2024-01-01 00:00:05.200,-0.882698,0.212661,9.515459,0.257401,0.00064,0.001039
2024-01-01 00:00:05.210,0.287302,-1.054654,9.746612,0.495618,-0.104972,-0.138514
2024-01-01 00:00:05.220,-0.350362,-0.408476,9.498148,0.23844,-0.189999,-0.342249
2024-01-01 00:00:05.230,0.301704,0.689137,10.492761,0.542951,-0.11055,-0.166778
2024-01-01 00:00:05.240,-0.403573,-0.246094,10.757256,-0.230588,-0.15443,-0.058546
2024-01-01 00:00:05.250,-0.954331,-0.496551,10.049463,-0.204847,0.130674,0.164613
2024-01-01 00:00:05.260,-0.860563,-0.083728,9.522943,-0.297235,-0.214239,-0.015469
2024-01-01 00:00:05.270,0.025425,0.874724,9.775029,0.11044,0.266642,-0.077854
2024-01-01 00:00:05.280,0.137328,-0.774802,9.826581,0.043901,0.150409,-0.133648
2024-01-01 00:00:05.290,-0.478157,-0.444704,9.131144,-0.037988,0.0041,0.098521
2024-01-01 00:00:05.300,0.337656,0.633414,10.299774,0.202315,6.4e-05,0.203754
2024-01-01 00:00:05.310,-0.878529,0.785808,10.199196,0.308082,-0.111456,0.159515
2024-01-01 00:00:05.320,-0.03494,-0.043751,11.113213,-0.381416,0.054017,0.090922
2024-01-01 00:00:05.330,-0.640325,-0.524119,10.872026,-0.149243,0.217618,-0.221342
2024-01-01 00:00:05.340,-0.344658,0.886542,9.229919,0.205036,-0.140631,-0.052751
2024-01-01 00:00:05.350,0.025062,0.674449,10.503972,-0.116935,-0.306678,0.292096
2024-01-01 00:00:05.360,-0.454944,0.287195,9.005493,-0.199552,0.140644,0.168293
2024-01-01 00:00:05.370,-0.203334,-0.343646,10.398759,0.254634,0.064873,-0.230625
2024-01-01 00:00:05.380,0.532077,-0.020739,9.372944,-0.322375,-0.22404,-0.008339
2024-01-01 00:00:05.390,-0.305032,-0.067832,8.944328,-0.075395,-0.146678,0.054465
2024-01-01 00:00:05.400,0.441872,0.13995,10.046918,0.082161,-0.171821,-0.114324
2024-01-01 00:00:05.410,-0.597332,0.613774,7.547316,-0.143455,-0.144906,-0.346381
2024-01-01 00:00:05.420,0.280134,0.371993,8.328675,0.195789,-0.064737,0.014824
2024-01-01 00:00:05.430,0.762229,-0.45573,9.659842,-0.142219,-0.053309,-0.118164
2024-01-01 00:00:05.440,-1.306882,0.582258,9.879746,0.352155,-0.130159,-0.117576
2024-01-01 00:00:05.450,-0.421358,0.132455,9.497556,-0.031437,-0.151633,-0.053202
2024-01-01 00:00:05.460,0.305127,0.290629,8.473797,0.167818,-0.045757,-0.020051
2024-01-01 00:00:05.470,-0.10736,0.620347,9.118064,0.186506,0.033538,-0.001362
2024-01-01 00:00:05.480,0.196243,-0.470198,10.140963,-0.156885,-0.063259,-0.132598
2024-01-01 00:00:05.490,-0.319357,-0.015154,10.302187,-0.513372,0.231733,-0.033031
2024-01-01 00:00:05.500,0.045784,-0.224805,9.796275,0.090189,0.101618,-0.263614
2024-01-01 00:00:05.510,1.797686,-0.663205,15.958681,0.018072,-0.318169,0.046656
2024-01-01 00:00:05.520,2.497465,0.146658,15.316198,0.138957,0.104746,-0.428441
2024-01-01 00:00:05.530,2.014525,1.062388,14.347653,-0.056632,0.121109,-0.043424
2024-01-01 00:00:05.540,2.058507,-0.778353,14.742695,-0.107607,-0.086947,0.137878
2024-01-01 00:00:05.550,1.66222,-0.013655,13.793175,0.502118,-0.29904,-0.158901
2024-01-01 00:00:05.560,-0.257822,0.27095,9.718514,-0.368089,0.001613,0.107465
2024-01-01 00:00:05.570,-0.228715,0.052062,10.750837,0.183488,-0.001542,0.17336
2024-01-01 00:00:05.580,0.208567,-0.047853,10.389755,-0.14365,-0.224329,-0.496185
2024-01-01 00:00:05.590,-0.222596,-0.549569,10.9961,-0.083945,-0.290244,-0.022704
2024-01-01 00:00:05.600,0.153218,0.098469,9.553759,-0.079276,-0.017511,-0.431366
2024-01-01 00:00:05.610,1.097368,-0.320111,10.9488,-0.200859,-0.046615,-0.017731
2024-01-01 00:00:05.620,0.460607,-0.926337,9.646465,0.142806,-0.083453,-0.001076
2024-01-01 00:00:05.630,-0.172385,0.505313,11.054961,0.347661,-0.016682,-0.372382
2024-01-01 00:00:05.640,0.635142,0.405397,9.791509,0.117503,-0.220555,0.288726
2024-01-01 00:00:05.650,-0.21577,0.021853,10.408318,0.025845,-0.086964,0.042902
2024-01-01 00:00:05.660,-1.077658,0.096899,11.057945,-0.24661,0.106665,-0.127354
2024-01-01 00:00:05.670,-0.533026,0.454437,9.64636,0.129206,-0.069994,0.219807
2024-01-01 00:00:05.680,-0.989181,0.094896,9.994757,0.539087,-0.334394,-0.269342
2024-01-01 00:00:05.690,-0.185863,0.382399,10.900378,-0.095174,-0.094538,-0.184376
2024-01-01 00:00:05.700,0.009739,-0.125835,9.697479,-0.093996,-0.214032,-0.344918
2024-01-01 00:00:05.710,0.886416,0.554969,8.692525,-0.140272,0.053427,0.270157
2024-01-01 00:00:05.720,0.172863,0.135692,11.622984,-0.122354,0.063767,0.049852
2024-01-01 00:00:05.730,-0.115849,0.082084,9.412579,-0.686325,-0.331755,0.09891
2024-01-01 00:00:05.740,0.438548,-0.537236,9.944308,0.101259,0.151803,0.04515
2024-01-01 00:00:05.750,-1.169138,0.121382,10.787982,-0.211388,-0.222437,0.086065
2024-01-01 00:00:05.760,0.124581,-0.351917,9.295214,-0.402566,0.311836,0.011712
2024-01-01 00:00:05.770,0.407595,-0.269994,8.957344,0.188297,-0.009755,0.040638
2024-01-01 00:00:05.780,-0.781802,-0.344904,10.024662,-0.270504,-0.249279,0.016141
2024-01-01 00:00:05.790,0.60476,-0.451017,8.293057,-0.084667,-0.228397,-0.091289
2024-01-01 00:00:05.800,0.17898,0.898778,9.566431,0.366611,0.069619,-0.006994
2024-01-01 00:00:05.810,1.660417,0.563156,15.187303,-0.352304,-0.07826,0.041039
2024-01-01 00:00:05.820,2.214583,0.812315,14.751621,-0.38315,-0.019331,0.016582
2024-01-01 00:00:05.830,3.080629,-0.517285,13.674241,0.067327,0.322556,-0.221666
2024-01-01 00:00:05.840,1.976162,0.03014,16.328675,0.287372,-0.139849,-0.201748
2024-01-01 00:00:05.850,2.011247,-0.547154,15.067593,-0.393585,0.011993,0.162426
2024-01-01 00:00:05.860,-0.242887,-0.294279,11.020755,0.101922,0.283969,-0.046049
2024-01-01 00:00:05.870,-0.449355,-0.388368,9.590009,0.14525,0.054103,0.087709
2024-01-01 00:00:05.880,0.43904,0.524344,9.06551,-0.51479,-0.321321,-0.163818
2024-01-01 00:00:05.890,-0.452654,-0.167605,10.037727,0.199625,0.101078,-0.220972
2024-01-01 00:00:05.900,0.037841,0.451924,9.627444,0.219151,-0.232601,-0.126539
2024-01-01 00:00:05.910,-0.252561,0.255543,8.813614,-0.077946,0.281362,-0.033385
2024-01-01 00:00:05.920,0.253261,0.974439,11.053437,0.313087,-0.164574,-0.099771
2024-01-01 00:00:05.930,0.176424,-0.625805,9.283559,0.284114,0.593902,0.19409
2024-01-01 00:00:05.940,0.548599,0.532656,8.253135,0.025779,0.293475,0.026928
2024-01-01 00:00:05.950,-0.269671,0.484944,10.933628,-0.112861,-0.159323,0.277341
2024-01-01 00:00:05.960,-0.142696,-0.411739,9.383364,-0.243207,0.004003,0.060661
2024-01-01 00:00:05.970,-0.517521,0.426017,9.295781,-0.009391,0.150729,-0.361883
2024-01-01 00:00:05.980,-0.23492,0.142189,8.316482,0.14244,0.156732,0.158406
2024-01-01 00:00:05.990,0.199498,-0.096222,11.282836,-0.081044,0.088467,-0.226433
2024-01-01 00:00:06.000,0.400258,-0.348525,8.719099,-0.549375,0.250432,0.03458
2024-01-01 00:00:06.010,-0.487595,-0.304183,9.859448,0.317178,-0.024594,-0.116203
2024-01-01 00:00:06.020,0.459804,0.867071,10.582077,0.047556,-0.073344,0.321407
2024-01-01 00:00:06.030,0.716794,0.000289,10.166773,-0.094906,-0.069373,0.21594
2024-01-01 00:00:06.040,0.218604,0.330841,9.759532,0.21429,0.171675,-0.111273
2024-01-01 00:00:06.050,0.992356,-0.33455,8.370391,0.38116,0.073036,-0.019104
2024-01-01 00:00:06.060,-0.409141,-0.329878,9.124973,-0.700478,0.058257,0.03669
2024-01-01 00:00:06.070,-0.658111,0.45768,9.968879,0.108566,0.159047,0.129512
2024-01-01 00:00:06.080,-0.940498,-0.570871,9.144051,-0.356662,-0.41021,0.004373
2024-01-01 00:00:06.090,0.791033,-0.175635,9.982042,0.124778,0.062014,-0.153734
2024-01-01 00:00:06.100,0.345996,0.014394,10.386755,0.031982,0.043714,-0.107634
2024-01-01 00:00:06.110,-0.02939,0.047111,10.624277,0.158932,0.333762,-0.000672
2024-01-01 00:00:06.120,0.148033,-0.075756,8.772652,-0.124812,-0.305718,0.185169
2024-01-01 00:00:06.130,-0.595102,0.167432,11.668363,-0.46831,0.311437,0.064176
2024-01-01 00:00:06.140,1.293191,0.293078,10.459288,-0.112592,0.015082,-0.116012
2024-01-01 00:00:06.150,0.068326,0.310752,9.80855,0.101712,0.097798,0.097256
2024-01-01 00:00:06.160,0.057842,-0.416995,10.731748,0.253848,0.335184,-0.058048
2024-01-01 00:00:06.170,0.383749,-0.120198,11.811135,-0.292958,0.112152,0.133561
2024-01-01 00:00:06.180,0.254334,0.505385,8.592843,0.256765,0.080074,0.379052
2024-01-01 00:00:06.190,0.118379,0.378436,9.619428,-0.161968,0.048458,-0.053824
2024-01-01 00:00:06.200,-0.417963,-0.58072,7.797847,0.090612,-0.096696,0.120241
2024-01-01 00:00:06.210,0.249289,0.148676,9.972983,-0.127473,-0.005698,-0.111809
2024-01-01 00:00:06.220,0.99512,-0.836789,10.119124,0.045543,-0.143103,-0.01684
2024-01-01 00:00:06.230,0.711391,0.019853,9.776869,0.222969,-0.008913,0.004434
2024-01-01 00:00:06.240,0.842397,0.802755,9.256265,-0.306754,-0.467186,-0.029053
2024-01-01 00:00:06.250,-0.270305,-0.400959,8.076111,-0.169976,0.085808,0.369452
2024-01-01 00:00:06.260,-0.523254,-0.352919,10.126009,0.046241,-0.024347,-0.045989
2024-01-01 00:00:06.270,-0.06651,0.323185,11.041298,0.600396,-0.067241,0.088028
2024-01-01 00:00:06.280,0.029465,-0.652605,9.309998,-0.215797,0.043952,-0.289513
2024-01-01 00:00:06.290,0.578554,-0.267655,10.182291,0.510033,-0.286713,0.064799
2024-01-01 00:00:06.300,-0.894891,0.252295,8.48335,0.501106,0.385854,0.171308
2024-01-01 00:00:06.310,0.80875,-0.268303,10.196802,-0.024328,-0.020553,-0.07914
2024-01-01 00:00:06.320,-0.083547,-0.099815,9.477199,-0.074538,-0.029169,-0.376533
2024-01-01 00:00:06.330,-0.225713,0.314791,9.164994,-0.173016,-0.193079,-0.005798
2024-01-01 00:00:06.340,-0.53515,0.178314,9.166732,-0.017051,0.004789,0.002578
2024-01-01 00:00:06.350,-0.875005,0.112864,9.477005,-0.35168,0.277392,0.108611
2024-01-01 00:00:06.360,0.435251,-0.143449,10.133539,-0.01906,0.207183,0.301635
2024-01-01 00:00:06.370,0.038767,0.156536,8.69991,0.37422,0.170888,-0.057008
2024-01-01 00:00:06.380,-0.682067,-0.052339,9.47404,-0.152771,0.10928,-0.128443
2024-01-01 00:00:06.390,-0.684773,0.193652,9.774915,-0.060181,-0.071709,-0.175038
2024-01-01 00:00:06.400,1.702454,-0.210202,14.050213,-0.425285,-0.290033,0.029712
2024-01-01 00:00:06.410,2.762495,-0.077227,16.499979,0.093516,-0.040208,0.071903
2024-01-01 00:00:06.420,1.742741,-0.418752,14.257943,0.06612,-0.047174,-0.081848
2024-01-01 00:00:06.430,1.085213,-0.014808,14.413656,0.015926,0.209759,0.116802
2024-01-01 00:00:06.440,1.750063,-0.343053,14.152351,-0.054207,0.061878,0.069808
2024-01-01 00:00:06.450,-0.144203,-0.471242,11.331514,-0.073189,0.322462,0.006485
2024-01-01 00:00:06.460,-1.425979,0.109414,10.277758,0.125475,0.239498,-0.135362
2024-01-01 00:00:06.470,-0.028708,0.089989,9.017643,-0.007204,-0.091299,-0.07228
2024-01-01 00:00:06.480,-0.122107,0.331156,10.745872,0.078743,-0.359026,-0.364463
2024-01-01 00:00:06.490,0.368119,-0.182366,9.979791,0.053746,0.277115,0.035368
2024-01-01 00:00:06.500,0.977636,0.172606,10.027636,0.280857,0.271877,0.003951
2024-01-01 00:00:06.510,0.595671,0.232987,9.518572,0.169249,-0.273242,0.028272
2024-01-01 00:00:06.520,-0.142175,0.188139,9.175994,0.048215,0.301848,0.075648
2024-01-01 00:00:06.530,-0.585076,-0.349252,10.09575,0.379606,0.076423,0.057873
2024-01-01 00:00:06.540,1.360664,0.063181,9.348856,0.105067,0.032137,-0.016557
2024-01-01 00:00:06.550,0.031312,0.154031,11.346975,0.326241,0.322957,0.0073
2024-01-01 00:00:06.560,0.007365,0.003036,8.73618,0.151736,0.268937,-0.210647
2024-01-01 00:00:06.570,-0.012756,-0.88258,11.109589,-0.46048,0.130266,-0.087558
2024-01-01 00:00:06.580,0.104737,0.067887,9.715824,0.326209,0.094643,0.007571
2024-01-01 00:00:06.590,-0.076331,0.935901,10.063027,0.033794,0.123279,-0.110378
2024-01-01 00:00:06.600,-0.303324,-0.152297,10.514851,-0.012989,-0.080011,0.129023
2024-01-01 00:00:06.610,-0.289152,-0.307977,9.276809,0.070337,-0.01102,-0.098795
2024-01-01 00:00:06.620,-0.017318,0.157926,10.541154,-0.086246,-0.180463,0.032446
2024-01-01 00:00:06.630,-0.287336,0.132136,7.519418,0.056757,-0.066608,0.017485
2024-01-01 00:00:06.640,-0.376917,0.504527,9.200889,-0.147969,-0.073327,0.111942
2024-01-01 00:00:06.650,0.056275,-0.532078,9.028243,0.318568,-0.127061,0.135119
2024-01-01 00:00:06.660,-0.134819,0.309374,8.749534,-0.028397,0.027349,0.104105
2024-01-01 00:00:06.670,0.795236,0.249749,9.628148,-0.095646,-0.064796,-0.315901
2024-01-01 00:00:06.680,-1.4017,-0.060128,10.136344,-0.231231,0.100447,0.179122
2024-01-01 00:00:06.690,0.577134,0.143265,10.40445,0.067194,-0.324464,0.229096
2024-01-01 00:00:06.700,2.538868,0.435461,15.183782,0.046777,-0.022671,-0.072319
2024-01-01 00:00:06.710,0.783695,0.368989,14.416823,0.097106,0.02631,0.035497
2024-01-01 00:00:06.720,1.698804,-0.483497,15.292188,-0.256813,-0.062126,-0.133625
2024-01-01 00:00:06.730,1.683601,0.346927,15.085146,-0.400295,-0.034479,-0.292257
2024-01-01 00:00:06.740,1.135778,-0.027363,15.771904,0.156398,-0.317049,-0.110807
2024-01-01 00:00:06.750,-0.411271,0.030826,10.467288,0.37116,0.071295,-0.081021
2024-01-01 00:00:06.760,-0.587217,0.030962,9.835783,-0.256588,0.129521,-0.053228
2024-01-01 00:00:06.770,0.926513,-0.063553,9.050924,0.39736,0.098707,-0.143837
2024-01-01 00:00:06.780,0.49474,0.504092,9.257604,0.070978,0.207745,-0.110014
2024-01-01 00:00:06.790,0.672335,-0.035413,9.344878,-0.001766,0.040306,-0.001651
2024-01-01 00:00:06.800,0.381584,-0.473568,9.543285,-0.099387,0.095736,-0.115534
2024-01-01 00:00:06.810,-0.596986,-0.166463,10.036771,-0.34613,0.031218,0.081529
2024-01-01 00:00:06.820,-0.27734,0.075588,10.415038,0.246932,0.13751,0.102249
2024-01-01 00:00:06.830,0.258757,0.519958,9.766754,-0.193902,-0.315446,0.357058
2024-01-01 00:00:06.840,-0.6462,0.255109,9.823642,-0.194952,-0.178716,0.168852
2024-01-01 00:00:06.850,0.376998,-0.359776,9.931237,0.247982,0.31738,0.036465
2024-01-01 00:00:06.860,-0.127072,1.051235,9.373544,-0.470746,-0.492087,-0.09304
2024-01-01 00:00:06.870,-0.198187,0.112,9.027118,-0.380899,-0.028036,0.044062
2024-01-01 00:00:06.880,0.37592,0.53949,8.3249,-0.004534,0.234455,0.048989
2024-01-01 00:00:06.890,0.234904,-0.064175,9.221904,0.073321,-0.018652,-0.076997
2024-01-01 00:00:06.900,-0.190861,0.225611,10.210281,0.121184,-0.081002,0.11756
2024-01-01 00:00:06.910,0.612996,0.355095,9.215337,-0.07545,0.025884,-0.209715
2024-01-01 00:00:06.920,-0.571612,0.515296,9.608815,0.632592,-0.070624,-0.03666
2024-01-01 00:00:06.930,0.325676,0.447267,10.204601,-0.056973,0.00617,0.083379
2024-01-01 00:00:06.940,0.313602,0.368939,10.250503,-0.057697,-0.136676,-0.043138
2024-01-01 00:00:06.950,-0.163673,-0.133282,8.896715,-0.199247,0.221735,-0.031013
2024-01-01 00:00:06.960,0.172443,-0.241849,10.653512,0.030977,0.284653,-0.020668
2024-01-01 00:00:06.970,-0.661526,0.140693,10.763738,0.15374,-0.026678,-0.12534
2024-01-01 00:00:06.980,0.488579,0.394713,8.854147,0.300895,-0.277298,0.176085
2024-01-01 00:00:06.990,-0.097767,-0.094211,9.113034,-0.372321,-0.104769,-0.152706
2024-01-01 00:00:07.000,-0.27639,0.450568,10.817663,-0.061499,-0.036798,0.047724
2024-01-01 00:00:07.010,0.554664,0.614457,9.685762,0.111676,0.101108,0.062047
2024-01-01 00:00:07.020,-0.372422,-0.387604,7.932068,0.146764,-0.201603,-0.142293
2024-01-01 00:00:07.030,-0.744724,-0.354017,8.625869,0.001637,-0.153832,0.010966
2024-01-01 00:00:07.040,-0.823068,-0.059379,9.599033,0.135606,0.102135,-0.136445
2024-01-01 00:00:07.050,0.320428,0.13012,8.826066,-0.202241,0.187782,0.208656
2024-01-01 00:00:07.060,-0.677027,-0.221892,9.460243,0.389476,-0.124319,-0.170817
2024-01-01 00:00:07.070,0.927847,0.571982,9.837407,0.248157,-0.266643,-0.098085
2024-01-01 00:00:07.080,-1.10082,0.17938,11.047067,-0.336232,0.656824,-0.183634
2024-01-01 00:00:07.090,0.897001,0.016686,9.564276,-0.268776,0.156661,-0.203655
2024-01-01 00:00:07.100,0.111575,-0.60739,10.71737,-0.26173,-0.053401,0.238682
2024-01-01 00:00:07.110,-0.051137,-0.55659,11.018731,0.169492,0.173806,0.081416
2024-01-01 00:00:07.120,-0.288126,0.118867,11.023426,-0.321182,-0.024891,0.021044
2024-01-01 00:00:07.130,0.211043,-0.902088,10.050902,-0.082756,0.173431,-0.098487
2024-01-01 00:00:07.140,-0.019899,0.428346,8.149057,0.113676,0.031879,0.136142
2024-01-01 00:00:07.150,0.583371,-0.066899,10.199858,-0.016541,0.018254,-0.123633
2024-01-01 00:00:07.160,0.060398,1.371828,10.696946,0.064722,-0.022716,0.119046
2024-01-01 00:00:07.170,0.079472,0.976249,9.741417,-0.266451,-0.289476,-0.130877
2024-01-01 00:00:07.180,-0.19226,-0.076753,11.285918,0.148714,0.387619,-0.096676
2024-01-01 00:00:07.190,-0.03011,-0.044981,10.537419,-0.153303,-0.188307,0.113742
2024-01-01 00:00:07.200,0.16275,0.421131,10.290759,-0.081155,-0.272005,0.129574
2024-01-01 00:00:07.210,-0.904252,0.720442,10.729078,0.059433,-0.042572,0.089621
2024-01-01 00:00:07.220,-0.712853,-0.692886,10.092031,0.02577,-0.192294,-0.157451
2024-01-01 00:00:07.230,0.393001,-0.755637,7.701082,0.005995,-0.010343,-0.067009
2024-01-01 00:00:07.240,0.090345,-0.263121,9.387728,-0.187657,0.137553,0.023535
2024-01-01 00:00:07.250,-0.097281,0.246498,10.822804,-0.074887,0.199061,-0.127392
2024-01-01 00:00:07.260,0.009747,0.210178,9.126778,0.000546,0.162946,0.205644
2024-01-01 00:00:07.270,0.183784,0.452513,9.620942,-0.343771,-0.061126,-0.360292
2024-01-01 00:00:07.280,-0.285398,-0.507472,8.926068,-0.115633,0.009918,-0.116811
2024-01-01 00:00:07.290,1.468471,-0.979729,16.489199,0.09692,0.081576,-0.076435
2024-01-01 00:00:07.300,1.983553,0.36294,16.402543,-0.319359,-0.351557,-0.426592
2024-01-01 00:00:07.310,1.362685,-0.350327,14.232247,0.289145,0.114117,-0.209434
2024-01-01 00:00:07.320,2.095864,-0.85382,15.104614,0.317403,-0.29146,0.093793
2024-01-01 00:00:07.330,0.979759,0.061362,14.404302,-0.311288,0.408069,0.004543
2024-01-01 00:00:07.340,0.544166,0.335513,10.330243,0.339405,-0.080903,0.23597
2024-01-01 00:00:07.350,0.249886,-0.05163,10.241192,-0.035895,-0.036975,0.231784
2024-01-01 00:00:07.360,0.135376,-0.19367,10.496703,0.104629,-0.153941,0.064957
2024-01-01 00:00:07.370,0.519598,-0.06741,10.090803,-0.124163,-0.125994,0.046986
2024-01-01 00:00:07.380,0.88062,-0.156757,12.293354,0.230761,0.454819,0.00989
2024-01-01 00:00:07.390,0.536348,-0.570224,8.940376,0.101524,0.188074,-0.398262
2024-01-01 00:00:07.400,-0.973362,-0.30231,8.36283,-0.203538,-0.30984,-0.209184
2024-01-01 00:00:07.410,-0.676576,0.220501,9.477446,-0.2913,0.300843,0.015101
2024-01-01 00:00:07.420,-0.330373,0.13607,8.483482,-0.365076,0.238648,0.092404
2024-01-01 00:00:07.430,0.013796,0.071089,8.547377,0.046985,-0.056242,0.04345
2024-01-01 00:00:07.440,0.273712,-0.420948,8.962888,0.143118,0.061339,-0.13387
2024-01-01 00:00:07.450,-0.383737,-0.076776,9.029828,0.162741,-0.002989,0.140611
2024-01-01 00:00:07.460,0.098753,-0.920899,9.002393,-0.029495,0.394516,0.222367
2024-01-01 00:00:07.470,-0.399409,0.075496,10.248413,-0.289249,-0.159258,0.140698
2024-01-01 00:00:07.480,-0.32334,0.604407,9.381764,-0.170519,0.029202,0.14844
2024-01-01 00:00:07.490,-0.743772,-0.623558,9.658131,0.288087,-0.085629,-0.083884
2024-01-01 00:00:07.500,-0.48816,-0.247847,10.566521,-0.121157,-0.286608,0.16139
2024-01-01 00:00:07.510,-0.714703,0.139212,9.161691,0.035854,0.438328,0.021864
2024-01-01 00:00:07.520,-0.515993,0.529952,9.586194,-0.268913,-0.236313,0.076733
2024-01-01 00:00:07.530,0.557113,-0.189599,10.119433,0.084146,0.044026,0.054815
2024-01-01 00:00:07.540,-0.501995,-0.292822,8.167434,-0.114421,-0.34814,-0.018223
2024-01-01 00:00:07.550,1.391872,-0.832854,7.79237,0.261678,-0.079814,-0.129
2024-01-01 00:00:07.560,0.260842,0.043754,10.102815,0.193389,0.084394,-0.01232
2024-01-01 00:00:07.570,0.097732,0.863798,10.226244,-0.123926,-0.164947,0.148014
2024-01-01 00:00:07.580,-0.453857,0.117323,11.55633,-0.031666,0.11736,-0.066221
2024-01-01 00:00:07.590,2.250289,-0.009424,15.113748,-0.137779,-0.053808,0.134002
2024-01-01 00:00:07.600,1.575631,0.136241,15.6735,-0.354858,0.232017,0.110561
2024-01-01 00:00:07.610,1.944513,-0.004692,14.81463,-0.214361,0.272352,-0.044841
2024-01-01 00:00:07.620,3.233645,-0.343905,15.231454,0.049554,-0.117349,0.20832
2024-01-01 00:00:07.630,1.829208,0.348247,16.390499,0.081315,0.015347,-0.053332
2024-01-01 00:00:07.640,0.607678,0.095497,8.013102,0.037137,0.036691,0.226432
2024-01-01 00:00:07.650,-0.371805,0.00745,10.159919,-0.075433,0.12387,0.065119
2024-01-01 00:00:07.660,-0.0185,-0.41258,11.616706,0.233267,0.002876,-0.00238
2024-01-01 00:00:07.670,0.936311,0.551384,10.048601,0.015885,0.038042,-0.13317
2024-01-01 00:00:07.680,-0.331509,0.281169,11.206385,0.175813,-0.048681,-0.013239
2024-01-01 00:00:07.690,0.958332,-0.233886,9.277687,-0.443444,0.023048,-0.030564
2024-01-01 00:00:07.700,0.374224,0.423772,9.782888,-0.9806,0.259588,-0.188744
2024-01-01 00:00:07.710,-0.297404,-0.210472,9.838362,0.070947,0.129217,-0.032642
2024-01-01 00:00:07.720,0.334386,-0.330787,7.933918,-0.356191,0.140251,-0.12057
2024-01-01 00:00:07.730,0.514238,-0.321354,8.821722,-0.053113,0.144614,0.087899
2024-01-01 00:00:07.740,0.328782,-0.749162,8.882044,-0.075524,-0.030762,0.195942
2024-01-01 00:00:07.750,-0.830256,0.199462,10.505468,0.39685,0.063765,-0.184037
2024-01-01 00:00:07.760,-0.384474,-0.774574,10.547842,0.099999,-0.217035,0.256846
2024-01-01 00:00:07.770,-0.130875,-0.519632,10.084135,0.041465,0.253762,-0.019283
2024-01-01 00:00:07.780,-0.039357,-0.877974,10.507191,0.209248,-0.556592,-0.146253
2024-01-01 00:00:07.790,0.32818,-0.036407,9.67113,0.092124,-0.01743,0.113663
2024-01-01 00:00:07.800,0.093959,-0.063586,10.826834,-0.114419,0.228179,-0.066968
2024-01-01 00:00:07.810,-0.706063,-0.138192,9.817435,0.267869,-0.272774,-0.012261
2024-01-01 00:00:07.820,0.20103,-0.44101,9.858953,-0.277438,0.079956,-0.060642
2024-01-01 00:00:07.830,0.322847,-0.495855,9.585309,0.080812,-0.136153,-0.122511
2024-01-01 00:00:07.840,0.295989,0.196428,10.389045,-0.386892,-0.073761,0.1086
2024-01-01 00:00:07.850,0.571463,-0.232883,9.453666,0.050986,0.189188,-0.042945
2024-01-01 00:00:07.860,0.440936,0.13382,10.636061,0.048247,0.039611,-0.215498
2024-01-01 00:00:07.870,0.242791,-0.37446,8.852202,0.419114,-0.406871,0.082659
2024-01-01 00:00:07.880,-0.0371,0.07659,8.880317,-0.391243,-0.195285,-0.180837
2024-01-01 00:00:07.890,-0.878233,0.551287,10.391563,-0.150222,0.195067,-0.172989
2024-01-01 00:00:07.900,0.227161,0.247948,9.735092,0.205671,0.089789,0.178891
2024-01-01 00:00:07.910,0.109815,-0.174451,9.426008,0.083829,0.349627,-0.179451
2024-01-01 00:00:07.920,0.143597,0.108795,10.562989,0.045076,0.33653,-0.347467
2024-01-01 00:00:07.930,-0.675081,-0.101801,9.296257,-0.239034,-0.068449,0.093429
2024-01-01 00:00:07.940,-0.571609,0.003333,9.64063,-0.147705,0.500648,-0.04558
2024-01-01 00:00:07.950,0.556855,-0.137733,10.993747,0.31126,0.004896,-0.032648
2024-01-01 00:00:07.960,-0.020915,-0.069514,11.112114,-0.012877,-0.192534,-0.047175
2024-01-01 00:00:07.970,0.360343,0.089715,11.140249,0.09384,-0.126728,0.03475
2024-01-01 00:00:07.980,0.014973,-0.420191,9.571322,-0.028797,-0.451345,-0.112908
2024-01-01 00:00:07.990,0.015734,-0.429717,10.851175,-0.295771,0.321404,0.221417
2024-01-01 00:00:08.000,0.496118,-0.587354,9.007186,0.233453,0.318952,-0.221435
2024-01-01 00:00:08.010,-0.272859,-0.676915,9.04276,0.125808,-0.203101,0.066731
2024-01-01 00:00:08.020,0.050824,-0.514911,7.821514,0.576409,-0.045577,0.096318
2024-01-01 00:00:08.030,-0.244428,0.067453,11.225246,-0.253895,0.019122,-0.113948
2024-01-01 00:00:08.040,-0.22974,-0.377649,9.079073,0.205643,-0.192071,-0.15356
2024-01-01 00:00:08.050,-0.163475,0.217259,9.702953,-0.327886,-0.35102,0.152576
2024-01-01 00:00:08.060,0.117453,0.014684,9.039866,0.039337,-0.042072,-0.148629
2024-01-01 00:00:08.070,-0.253138,-0.832677,10.39811,0.244127,-0.064216,-0.091
2024-01-01 00:00:08.080,0.663981,0.277055,9.492214,-0.518034,-0.077682,0.133096
2024-01-01 00:00:08.090,-0.473024,0.342968,8.706125,-0.051233,0.044543,0.005211
2024-01-01 00:00:08.100,-0.098808,-0.420404,10.183647,-0.140802,0.285904,-0.269572
2024-01-01 00:00:08.110,-0.232508,0.177741,8.597064,-0.175489,-0.060619,0.262059
2024-01-01 00:00:08.120,0.76509,-0.362299,9.101555,0.096303,0.034089,-0.079502
2024-01-01 00:00:08.130,0.103928,0.041315,8.027572,0.280171,0.145374,-0.060414
2024-01-01 00:00:08.140,0.545588,-0.534883,8.605331,-0.03332,0.110829,0.038368
2024-01-01 00:00:08.150,-0.78549,-0.758484,9.961036,0.051372,-0.122885,0.093762
2024-01-01 00:00:08.160,0.141203,-0.161932,8.148003,0.028577,0.019275,0.294166
2024-01-01 00:00:08.170,0.470392,-0.052337,8.556951,0.000451,0.109508,-0.24901
2024-01-01 00:00:08.180,1.923508,-0.168219,14.977996,-0.272336,-0.22567,0.123893
2024-01-01 00:00:08.190,2.443373,-0.500845,14.520109,0.277111,0.252708,0.111451
2024-01-01 00:00:08.200,1.606484,-0.169157,16.665263,0.073799,0.286318,-0.020575
2024-01-01 00:00:08.210,2.625192,0.113912,16.531476,0.09872,-0.144556,0.118091
2024-01-01 00:00:08.220,3.095542,-0.01899,14.245738,-0.201627,0.038734,0.140141
2024-01-01 00:00:08.230,-0.191851,0.077198,10.281338,-0.114805,0.128456,-0.207294
2024-01-01 00:00:08.240,-0.235559,-0.283459,10.443893,-0.044034,-0.109123,0.262465
2024-01-01 00:00:08.250,0.768477,0.495637,9.304533,-0.383531,0.096323,-0.233814
2024-01-01 00:00:08.260,0.835199,-0.497521,8.544772,-0.422009,0.032651,-0.170297
2024-01-01 00:00:08.270,-0.276462,0.206238,9.799596,-0.150187,-0.293584,-0.039268
2024-01-01 00:00:08.280,-0.222174,0.49994,9.663773,0.13063,0.091832,0.288741
2024-01-01 00:00:08.290,-0.148994,0.203424,9.441343,-0.163284,-0.220028,-0.046238
2024-01-01 00:00:08.300,-0.710878,-0.085668,10.1842,-0.254701,0.187841,-0.00479
2024-01-01 00:00:08.310,-0.485737,-0.22347,9.174883,-0.203671,-0.134242,0.214812
2024-01-01 00:00:08.320,-0.530939,0.438265,8.83541,-0.113836,-0.032257,-0.045048
2024-01-01 00:00:08.330,-0.405973,-0.601918,9.902284,-0.088465,0.274456,-0.176766
2024-01-01 00:00:08.340,-0.01834,-0.410363,10.136531,0.54138,0.099276,-0.062585
2024-01-01 00:00:08.350,0.123841,-0.168167,8.814558,0.263655,-0.215895,0.205619
2024-01-01 00:00:08.360,0.819827,0.523528,10.595165,0.256194,-0.202983,0.01063
2024-01-01 00:00:08.370,-0.52788,0.160642,8.312173,0.292145,-0.119861,0.289599
2024-01-01 00:00:08.380,0.52046,-0.409483,9.320916,-0.249705,0.078929,0.11069
2024-01-01 00:00:08.390,-0.113147,-0.13126,9.591725,-0.305591,0.07166,-0.096721
2024-01-01 00:00:08.400,-0.026154,-0.259859,9.271755,-0.276718,-0.16862,0.007661
2024-01-01 00:00:08.410,0.356811,-0.300241,9.331959,0.333627,-0.233442,-0.127983
2024-01-01 00:00:08.420,-0.593639,0.41407,11.392929,-0.136798,0.056317,-0.100265
2024-01-01 00:00:08.430,0.202199,-0.580247,9.090152,-0.312839,-0.036372,0.671863
2024-01-01 00:00:08.440,0.088012,0.680514,11.875274,-0.107749,0.431443,0.152794
2024-01-01 00:00:08.450,0.260384,0.350341,10.179809,-0.059651,0.007321,0.129165
2024-01-01 00:00:08.460,0.152898,0.461434,9.887879,0.067103,0.362851,-0.093477
2024-01-01 00:00:08.470,1.29824,-0.195823,10.212899,0.062738,-0.234077,0.235438
2024-01-01 00:00:08.480,1.542795,-0.063425,17.120319,-0.207045,-0.314643,0.164912
2024-01-01 00:00:08.490,1.599235,-0.606223,14.13942,0.171414,-0.224017,0.282243
2024-01-01 00:00:08.500,1.550514,-0.221932,14.032126,-0.159798,0.237826,0.274967
2024-01-01 00:00:08.510,1.586291,0.208816,14.341383,-0.039069,0.35122,-0.221863
2024-01-01 00:00:08.520,1.542982,0.548235,15.007193,0.171694,-0.156436,-0.166476
2024-01-01 00:00:08.530,0.628692,-0.468327,8.349998,-0.160455,-0.092113,-0.150568
2024-01-01 00:00:08.540,0.751092,-0.154609,9.828899,-0.142338,-0.233796,-0.141591
2024-01-01 00:00:08.550,-0.301782,-0.064,11.242741,0.147917,-0.362328,0.048518
2024-01-01 00:00:08.560,-0.440108,-0.590419,9.938091,-0.214433,0.143682,-0.085021
2024-01-01 00:00:08.570,0.249261,0.250141,9.562388,-0.096198,0.044604,0.31089
2024-01-01 00:00:08.580,-0.291988,-0.306248,9.287036,0.138936,0.002098,0.285702
2024-01-01 00:00:08.590,0.334663,-0.08265,10.570141,0.513523,-0.280011,-0.000969
2024-01-01 00:00:08.600,0.107296,-0.191175,9.111345,0.151351,0.327991,0.293299
2024-01-01 00:00:08.610,-0.80145,-0.33389,11.372051,0.11816,-0.100671,0.22322
2024-01-01 00:00:08.620,0.818243,-0.00298,11.445622,0.1327,0.106725,-0.067606
2024-01-01 00:00:08.630,0.94957,-0.091203,10.027211,-0.268298,-0.290912,-0.301382
2024-01-01 00:00:08.640,-0.324012,-0.157296,9.800258,0.028899,-0.038105,-0.032695
2024-01-01 00:00:08.650,-0.204997,-0.308139,10.681938,-0.007442,0.058275,-0.096693
2024-01-01 00:00:08.660,0.151151,0.135159,10.7362,0.080396,0.065415,0.030976
2024-01-01 00:00:08.670,0.176844,0.69948,9.128131,0.029127,0.03093,0.013384
2024-01-01 00:00:08.680,0.348205,0.059172,9.364534,0.094925,0.098904,0.009453
2024-01-01 00:00:08.690,1.062896,0.421358,8.691294,-0.077867,-0.226104,0.078553
2024-01-01 00:00:08.700,-0.093561,-0.588064,10.156069,0.014652,0.039475,-0.181878
2024-01-01 00:00:08.710,-0.4221,0.066733,10.373967,-0.306957,0.022752,0.061704
2024-01-01 00:00:08.720,-0.729315,-0.464187,8.667963,-0.079977,0.046335,-0.065942
2024-01-01 00:00:08.730,-0.386479,-0.624739,9.424902,0.347708,0.014469,0.029997
2024-01-01 00:00:08.740,-0.017516,-0.312754,8.670223,0.079702,-0.254643,0.143611
2024-01-01 00:00:08.750,0.948872,0.504173,9.049615,-0.00523,-0.26356,-0.18366
2024-01-01 00:00:08.760,-0.273687,0.401857,10.27616,0.474031,-0.442854,-0.042194
2024-01-01 00:00:08.770,0.118328,0.102791,9.189474,-0.340209,0.163507,-0.01778
2024-01-01 00:00:08.780,-0.008684,-0.648332,9.555501,-0.277364,0.165532,-0.07714
2024-01-01 00:00:08.790,0.628363,-0.083027,8.433294,0.428178,0.16871,0.134974
2024-01-01 00:00:08.800,1.336116,0.127619,9.968194,0.01149,0.061358,-0.108058
2024-01-01 00:00:08.810,-0.280697,0.074252,9.772545,-0.060646,-0.426624,-0.08331
2024-01-01 00:00:08.820,-0.258791,-0.779925,9.1933,-0.299801,-0.205342,-0.106488
2024-01-01 00:00:08.830,0.5521,-0.376604,9.650094,0.111924,0.034083,0.163808
2024-01-01 00:00:08.840,0.36055,-0.027105,9.962529,0.136115,0.027104,-0.073867
2024-01-01 00:00:08.850,0.976446,0.226851,9.120622,-0.273624,-0.04455,0.069007
2024-01-01 00:00:08.860,0.308752,-0.928962,8.561082,-0.035069,0.073783,0.296356
2024-01-01 00:00:08.870,-0.189976,-0.068578,11.337516,-0.083879,0.00233,-0.011223
2024-01-01 00:00:08.880,0.312309,0.06051,9.274251,0.063994,0.024154,0.166809
2024-01-01 00:00:08.890,0.586227,0.359386,9.728141,-0.279813,-0.127813,0.250703
2024-01-01 00:00:08.900,0.43383,0.293079,10.66517,0.312987,0.196402,0.154079
2024-01-01 00:00:08.910,0.268221,0.246428,12.795581,0.228956,-0.086154,-0.00252
2024-01-01 00:00:08.920,0.564004,-0.338375,8.757164,-0.090794,-0.26613,0.096316
2024-01-01 00:00:08.930,0.618265,-0.807085,10.190554,-0.054105,-0.1542,-0.193107
2024-01-01 00:00:08.940,0.730817,-0.166261,9.211411,-0.034106,-0.069693,-0.117006
2024-01-01 00:00:08.950,0.343005,0.42369,9.354183,-0.194577,0.198801,-0.090701
2024-01-01 00:00:08.960,-0.088364,0.589431,9.200701,-0.110857,-0.008454,0.336092
2024-01-01 00:00:08.970,0.077575,0.300562,8.857696,-0.067568,-0.03723,-0.121888
2024-01-01 00:00:08.980,0.637942,0.181611,9.775068,0.403217,-0.249733,-0.124122
2024-01-01 00:00:08.990,-0.431955,0.160588,8.562571,0.236655,0.157097,-0.156588
2024-01-01 00:00:09.000,0.194936,-0.235238,10.610999,0.233664,-0.13039,0.083972
2024-01-01 00:00:09.010,-0.207978,-0.055016,9.856532,0.092481,-0.020006,0.021393
2024-01-01 00:00:09.020,0.015199,0.706016,10.16738,-0.279332,0.296037,0.163014
2024-01-01 00:00:09.030,0.675981,-0.398702,9.415604,-0.010373,0.101753,0.100689
2024-01-01 00:00:09.040,0.101044,0.683051,9.499345,0.242622,-0.325651,-0.207058
2024-01-01 00:00:09.050,0.024553,-0.136218,10.053279,-0.314566,-0.353902,-0.121092
2024-01-01 00:00:09.060,1.160976,0.560658,13.995213,0.159138,-0.012862,0.204799
2024-01-01 00:00:09.070,2.274582,-0.595083,14.67714,0.580652,-0.242548,-0.030495
2024-01-01 00:00:09.080,2.2213,0.247837,14.252767,0.265454,0.129709,0.178139
2024-01-01 00:00:09.090,3.023821,-0.311654,14.226579,0.353507,0.008453,-0.022452
2024-01-01 00:00:09.100,1.717262,-0.598658,13.195077,0.054585,0.033077,-0.145148
2024-01-01 00:00:09.110,0.115876,0.09244,10.94307,0.241983,-0.141349,-0.045489
2024-01-01 00:00:09.120,0.131862,0.427007,9.229188,-0.179463,0.348277,-0.145207
2024-01-01 00:00:09.130,0.834078,-0.35741,10.794216,0.198966,0.568519,-0.084833
2024-01-01 00:00:09.140,-0.050388,-0.634084,10.714198,0.163597,-0.055717,0.030139
2024-01-01 00:00:09.150,0.147533,-0.03885,8.722044,0.072478,0.070608,0.076741
2024-01-01 00:00:09.160,0.321425,-0.036985,8.889204,0.329002,0.019483,-0.238529
2024-01-01 00:00:09.170,0.09867,0.231939,11.976186,-0.134696,-0.051937,-0.002605
2024-01-01 00:00:09.180,-0.236052,0.401679,11.291283,-0.046764,-0.166414,-0.087992
2024-01-01 00:00:09.190,0.102625,-0.025133,9.783335,0.023866,-0.216994,-0.097262
2024-01-01 00:00:09.200,0.567683,0.784878,10.027738,-0.257403,-0.227119,0.019903
2024-01-01 00:00:09.210,-0.54277,0.094851,9.276304,0.056733,0.081048,-0.082568
2024-01-01 00:00:09.220,0.070308,-0.146538,10.17577,-0.429733,-0.103935,0.207321
2024-01-01 00:00:09.230,-0.370189,-0.681693,9.203264,0.261739,-0.515659,0.178209
2024-01-01 00:00:09.240,0.631881,-0.111105,8.090629,0.011659,0.088972,0.177274
2024-01-01 00:00:09.250,-0.805385,-0.142292,8.691964,-0.130223,-0.007652,-0.074237
2024-01-01 00:00:09.260,-0.29553,0.406209,9.827844,-0.208593,0.269335,-0.144375
2024-01-01 00:00:09.270,0.199451,0.195631,8.853117,-0.058645,0.074624,0.012304
2024-01-01 00:00:09.280,0.827771,-0.498873,9.753083,0.172065,-0.295735,-0.022552
2024-01-01 00:00:09.290,-0.034765,0.072864,8.900837,0.136935,-0.445935,-0.091323
2024-01-01 00:00:09.300,-0.293562,0.284058,9.148129,-0.176384,-0.143894,-0.17636
2024-01-01 00:00:09.310,0.994662,0.646357,10.531778,-0.21151,-0.125021,-0.006228
2024-01-01 00:00:09.320,-0.765637,0.375414,10.019369,0.164225,0.188632,-0.06061
2024-01-01 00:00:09.330,-1.162619,0.321838,9.801824,-0.180587,-0.001774,0.103252
2024-01-01 00:00:09.340,0.232658,0.025416,10.553604,0.014977,0.226738,0.099766
2024-01-01 00:00:09.350,-0.265461,0.164256,10.216595,0.030939,-0.264967,0.16512
2024-01-01 00:00:09.360,1.340023,0.528541,16.203793,0.078016,0.193053,-0.188894
2024-01-01 00:00:09.370,2.254543,-0.563765,14.590959,0.214568,0.144198,0.060159
2024-01-01 00:00:09.380,2.00891,-0.147813,14.616529,-0.315741,-0.403647,-0.10912
2024-01-01 00:00:09.390,1.581743,-0.326797,13.879262,-0.47779,0.264524,-0.183062
2024-01-01 00:00:09.400,1.203039,0.160382,14.617082,-0.141862,0.018692,-0.06429
2024-01-01 00:00:09.410,0.461312,0.520384,10.626195,0.450382,0.078409,0.160306
2024-01-01 00:00:09.420,0.343794,-0.25252,10.909789,0.505544,-0.172979,-0.055848
2024-01-01 00:00:09.430,-0.052439,-1.011099,10.622418,0.457794,0.255049,0.234818
2024-01-01 00:00:09.440,0.976409,-0.174369,8.292114,-0.048245,-0.23717,0.082332
2024-01-01 00:00:09.450,-0.565807,0.386399,10.726341,-0.445529,0.166418,-0.059114
2024-01-01 00:00:09.460,-0.806621,0.227417,8.254613,-0.58576,0.164121,0.174007
2024-01-01 00:00:09.470,-0.365846,0.181123,10.569807,-0.15351,-0.194833,0.06681
2024-01-01 00:00:09.480,-0.024104,-0.118437,9.498854,-0.049518,0.396675,-0.139884
2024-01-01 00:00:09.490,0.128666,-0.54103,10.404343,0.325156,0.046306,0.27882
2024-01-01 00:00:09.500,-0.127554,0.217969,8.682749,0.216951,0.130779,0.038922
2024-01-01 00:00:09.510,0.186149,-0.352901,10.800808,0.056851,-0.305424,0.002819
2024-01-01 00:00:09.520,-0.661751,0.923873,8.570631,-0.222461,0.423546,-0.12833
2024-01-01 00:00:09.530,0.763391,0.241325,9.244487,-0.240195,-0.244911,0.176931
2024-01-01 00:00:09.540,-0.043437,-0.245614,8.965612,0.063532,0.204977,0.077591
2024-01-01 00:00:09.550,0.59077,-0.258616,8.325875,0.174263,-0.198954,0.094386
2024-01-01 00:00:09.560,0.181216,-0.039315,9.88997,0.09797,-0.123798,-0.07613
2024-01-01 00:00:09.570,0.241508,-0.101309,11.337951,-0.258649,0.157751,0.125115
2024-01-01 00:00:09.580,0.301264,0.472421,12.066202,0.162667,0.205511,0.136772
2024-01-01 00:00:09.590,0.236726,0.078854,9.892194,0.106478,-0.254257,-0.100317
2024-01-01 00:00:09.600,0.33984,-0.30948,10.754712,-0.267667,0.218094,-0.212549
2024-01-01 00:00:09.610,0.702789,0.799656,10.006352,-0.19608,0.208996,0.087206
2024-01-01 00:00:09.620,0.103911,0.020857,10.232055,0.172124,-0.187591,-0.236002
2024-01-01 00:00:09.630,0.374886,0.325219,9.520542,-0.058627,0.31973,0.022802
2024-01-01 00:00:09.640,-0.047448,-0.25728,9.975035,0.397287,-0.291372,-0.067087
2024-01-01 00:00:09.650,0.761462,0.153598,10.264707,0.125282,-0.124955,0.1828
2024-01-01 00:00:09.660,-0.357642,0.1316,9.320623,-0.121658,0.095801,-0.058927
2024-01-01 00:00:09.670,0.952247,-0.799322,9.74444,-0.002551,-0.170713,0.166091
2024-01-01 00:00:09.680,-0.021234,0.852461,9.760568,0.015846,0.052764,-0.077131
2024-01-01 00:00:09.690,-0.756522,0.545943,10.509137,-0.182098,0.048215,0.149999
2024-01-01 00:00:09.700,0.067735,-0.168014,8.908137,-0.228147,-0.037415,0.309051
2024-01-01 00:00:09.710,-0.360106,-0.46626,9.766395,0.175347,0.16648,-0.160207
2024-01-01 00:00:09.720,0.44449,0.147019,11.427557,0.211318,-0.045672,0.043805
2024-01-01 00:00:09.730,-0.345075,0.036673,10.794795,0.150945,0.046308,0.412317
2024-01-01 00:00:09.740,-0.235919,0.150448,10.951405,0.37883,0.229294,0.009988
2024-01-01 00:00:09.750,-0.999095,0.081037,9.830669,-0.135443,0.158137,0.009268
2024-01-01 00:00:09.760,-0.239157,0.21414,10.081564,0.418568,0.157203,0.118275
2024-01-01 00:00:09.770,-1.281626,0.61221,10.657892,-0.22523,-0.229836,0.006162
2024-01-01 00:00:09.780,-0.837489,0.240308,11.129976,-0.253171,0.104959,-0.256084
2024-01-01 00:00:09.790,0.402069,-0.444004,8.158944,-0.43999,-0.1757,0.169843
2024-01-01 00:00:09.800,0.415492,0.576364,8.697137,-0.111449,-0.256283,-0.300442
2024-01-01 00:00:09.810,0.224961,0.69398,10.91779,-0.125931,-0.014341,-0.062519
2024-01-01 00:00:09.820,-0.511289,1.33332,9.575752,0.131484,-0.180859,0.181114
2024-01-01 00:00:09.830,-0.025227,-0.475238,9.241724,0.060973,0.158124,-0.053481
2024-01-01 00:00:09.840,-0.001905,0.102739,8.74898,-0.298243,0.162907,-0.104054
2024-01-01 00:00:09.850,-0.612485,-0.880728,9.340456,-0.098182,-0.380525,0.13189
2024-01-01 00:00:09.860,0.794922,0.233982,8.623596,-0.092866,-0.165661,-0.127667
2024-01-01 00:00:09.870,0.463905,-0.231889,11.579066,-0.443996,-0.291957,-0.183334
2024-01-01 00:00:09.880,-0.116835,0.813618,9.791019,-0.245237,-0.092526,0.041177
2024-01-01 00:00:09.890,0.014216,-0.327662,9.760974,-0.192703,0.091035,-0.027438
2024-01-01 00:00:09.900,0.110182,-0.714524,10.307513,0.358406,-0.048458,-0.186551
2024-01-01 00:00:09.910,-1.079567,-0.199345,10.624144,0.047863,-0.117952,0.095543
2024-01-01 00:00:09.920,-0.130695,-0.835631,10.610221,0.165542,0.260035,0.069673
2024-01-01 00:00:09.930,-0.360599,0.317715,10.718284,-0.374659,-0.460971,-0.053963
2024-01-01 00:00:09.940,-0.529607,-0.87353,9.276305,0.298554,0.247374,-0.0437
2024-01-01 00:00:09.950,1.731368,0.012038,14.728005,0.325276,-0.108858,0.070559
2024-01-01 00:00:09.960,2.830527,-0.878914,15.630601,-0.499586,-0.015622,0.178554
2024-01-01 00:00:09.970,2.218846,-0.135486,14.533829,-0.176329,-0.105473,-0.042419
2024-01-01 00:00:09.980,1.577989,0.695149,14.97568,0.123941,0.308578,0.098203
2024-01-01 00:00:09.990,2.182753,0.152554,15.317354,0.161097,-0.246196,0.08478
2024-01-01 00:00:10.000,0.739909,-0.365258,10.474267,-0.169624,0.002347,0.131896
2024-01-01 00:00:10.010,0.4889,-0.013199,8.306082,-0.076375,0.105488,0.005896
2024-01-01 00:00:10.020,0.03153,0.007621,10.414675,-0.149345,-0.322201,-0.136849
2024-01-01 00:00:10.030,-0.342068,0.199923,9.612269,0.027605,-0.18398,-0.069375
2024-01-01 00:00:10.040,0.369186,-0.578181,10.408509,0.299295,-0.029636,0.051428
2024-01-01 00:00:10.050,0.208055,0.250656,10.467284,-0.192761,-0.177333,0.27277
2024-01-01 00:00:10.060,0.473333,-1.143958,11.170296,0.250205,-0.163118,-0.072603
2024-01-01 00:00:10.070,0.335847,-0.266441,10.955022,-0.195418,-0.069973,0.120718
2024-01-01 00:00:10.080,0.554951,-0.20654,10.9492,-0.211907,0.129916,-0.049208
2024-01-01 00:00:10.090,-0.283006,0.267897,11.031345,0.204649,-0.068544,0.01657
2024-01-01 00:00:10.100,0.696572,0.009573,10.056507,0.230484,0.215685,0.22731
2024-01-01 00:00:10.110,0.104481,-0.594553,9.837229,0.212852,-0.199552,0.114644
2024-01-01 00:00:10.120,1.097294,-0.416652,10.548403,-0.328949,-0.250384,-0.186195
2024-01-01 00:00:10.130,-0.364408,0.084042,10.42934,-0.116488,0.385269,-0.085871
2024-01-01 00:00:10.140,0.917891,-0.033445,9.54853,0.205747,-0.131592,0.188433
2024-01-01 00:00:10.150,0.104645,-0.244969,10.152481,0.010385,-0.262182,0.021282
2024-01-01 00:00:10.160,-0.344437,-0.203393,9.780308,-0.268423,-0.348411,-0.172326
2024-01-01 00:00:10.170,-0.255855,0.294479,9.087573,0.114579,0.215021,-0.122843
2024-01-01 00:00:10.180,-0.169384,-0.218984,10.90173,-0.178702,-0.068261,0.105524
2024-01-01 00:00:10.190,0.224278,-0.037263,9.856699,0.448631,-0.050742,0.149162
2024-01-01 00:00:10.200,0.276449,0.917883,11.543207,0.38621,-0.03184,0.002678
2024-01-01 00:00:10.210,-0.303344,-0.602218,8.434834,0.151024,0.202589,0.371297
2024-01-01 00:00:10.220,-0.012877,-0.783329,9.338965,0.340252,-0.035906,0.123623
2024-01-01 00:00:10.230,1.132725,0.331458,9.837612,0.016198,0.468811,-0.036522
2024-01-01 00:00:10.240,0.913438,-0.287066,10.772224,0.191359,0.026752,-0.122356
2024-01-01 00:00:10.250,2.110706,-0.134614,15.317951,0.36943,0.212357,-0.146233
2024-01-01 00:00:10.260,1.900094,-0.330429,15.24266,0.061375,0.161048,0.050313
2024-01-01 00:00:10.270,1.943467,-0.109895,14.026335,-0.063797,-0.007289,-0.073317
2024-01-01 00:00:10.280,2.204398,0.676182,14.001228,-0.426155,-0.117394,0.251062
2024-01-01 00:00:10.290,1.339198,0.3393,15.252839,-0.020783,0.066393,0.219947
2024-01-01 00:00:10.300,-0.136088,0.364721,8.655966,0.205856,0.10202,0.09496
2024-01-01 00:00:10.310,-0.882264,-0.599064,9.360031,0.236408,-0.114517,-0.176849
2024-01-01 00:00:10.320,0.211089,-0.486938,10.233776,0.126091,0.033268,-0.100833
2024-01-01 00:00:10.330,0.342205,-1.20093,8.978954,-0.135325,0.247241,0.188352
2024-01-01 00:00:10.340,-0.255485,-0.342368,11.168131,-0.494205,0.41399,-0.08446
2024-01-01 00:00:10.350,0.832246,0.404685,10.84545,-0.123804,0.170874,0.168321
2024-01-01 00:00:10.360,-0.648124,0.218668,8.480579,-0.076086,0.372552,0.071191
2024-01-01 00:00:10.370,-0.774288,-0.0937,9.021214,-0.078232,-0.125875,0.007758
2024-01-01 00:00:10.380,0.118679,-0.009433,7.876232,0.154639,0.140376,-0.105425
2024-01-01 00:00:10.390,0.553653,-0.291399,9.147928,0.496419,0.267704,-0.014137
2024-01-01 00:00:10.400,0.890377,0.086613,10.458365,0.030882,-0.179267,0.028447
2024-01-01 00:00:10.410,-0.242635,0.323967,9.459845,-0.054183,-0.097118,0.154881
2024-01-01 00:00:10.420,0.570352,-0.68352,10.199834,-0.064805,0.347581,-0.13286
2024-01-01 00:00:10.430,-0.020361,0.126751,8.522105,0.031096,-0.19502,-0.039423
2024-01-01 00:00:10.440,-0.091277,0.39442,10.485087,-0.207073,-0.268226,0.006723
2024-01-01 00:00:10.450,0.467235,-0.175587,9.340378,0.03005,0.305596,0.099402
2024-01-01 00:00:10.460,0.344916,0.296396,9.820296,0.112703,0.239353,-0.13627
2024-01-01 00:00:10.470,-0.833517,1.190599,9.731428,0.052422,0.086424,-0.197485
2024-01-01 00:00:10.480,0.780721,-0.044137,8.73427,0.114385,-0.009142,0.101095
2024-01-01 00:00:10.490,0.729723,0.166369,8.834491,0.108437,-0.087705,-0.227692
2024-01-01 00:00:10.500,-0.330766,-0.312198,10.628754,-0.442974,0.05639,0.192747
2024-01-01 00:00:10.510,0.209281,0.076669,10.147547,0.159218,0.315961,-0.023389
2024-01-01 00:00:10.520,0.261218,0.194695,10.698341,-0.167754,0.047713,-0.23213
2024-01-01 00:00:10.530,0.137831,0.082418,10.084661,-0.27396,0.433392,-0.072063
2024-01-01 00:00:10.540,-0.290974,-0.431331,9.93097,-0.276113,-0.179588,0.056869
2024-01-01 00:00:10.550,-0.355121,0.087291,8.349795,0.108385,-0.003936,-0.079905
2024-01-01 00:00:10.560,-0.013512,0.618509,9.58127,-0.055644,-0.074612,0.003004
2024-01-01 00:00:10.570,0.62008,0.189773,9.786833,-0.420492,-0.217028,0.111012
2024-01-01 00:00:10.580,0.287429,0.406921,11.462329,0.119509,-0.030617,-0.030329
2024-01-01 00:00:10.590,-0.195962,-0.100256,10.391165,-0.359902,0.083466,-0.140559
2024-01-01 00:00:10.600,0.408036,0.317208,11.109508,0.034955,0.104846,-0.044848
2024-01-01 00:00:10.610,-1.506167,0.11813,10.315517,0.059625,0.43409,0.212226
2024-01-01 00:00:10.620,0.60741,-0.402235,9.208237,0.221394,0.092893,0.25276
2024-01-01 00:00:10.630,-0.919874,0.134734,9.909087,0.445421,0.230027,-0.302989
2024-01-01 00:00:10.640,-0.191641,-0.419488,10.009845,-0.341169,0.013219,0.163654
2024-01-01 00:00:10.650,-0.592025,-0.267708,9.015474,-0.013118,0.335611,0.037522
2024-01-01 00:00:10.660,-0.684563,0.080086,9.484808,-0.069084,0.47969,0.138597
2024-01-01 00:00:10.670,0.613787,0.125734,9.635921,0.108437,0.106217,-0.082573
2024-01-01 00:00:10.680,-0.247297,-0.503045,11.168354,0.053917,-0.198532,-0.26524
2024-01-01 00:00:10.690,0.183214,0.445836,8.049694,-0.088137,-0.109761,0.087673
2024-01-01 00:00:10.700,-0.024809,0.241959,10.830122,-0.110226,0.056387,-0.141147
2024-01-01 00:00:10.710,0.252235,-0.2981,9.017471,-0.279113,0.0913,-0.208244
2024-01-01 00:00:10.720,0.04062,-0.650398,8.649221,0.246965,0.139685,-0.19776
2024-01-01 00:00:10.730,-0.678382,-0.061295,10.808231,0.114801,0.09204,0.090137
2024-01-01 00:00:10.740,0.526776,-0.188634,10.429186,0.229442,0.001397,0.020918
2024-01-01 00:00:10.750,-0.261074,0.047858,10.871323,-0.077599,-0.12724,0.11737
2024-01-01 00:00:10.760,-0.823043,-0.153598,10.487394,-0.164209,0.080228,0.100361
2024-01-01 00:00:10.770,-0.226366,-0.849154,11.552629,-0.269579,0.370997,-0.06314
2024-01-01 00:00:10.780,0.793527,-0.164271,10.28268,0.089729,0.203986,-0.010571
2024-01-01 00:00:10.790,0.449555,-0.129277,9.67762,-0.259948,0.106941,-0.076716
2024-01-01 00:00:10.800,-0.18435,0.268039,10.100116,0.462166,0.205913,-0.031549
2024-01-01 00:00:10.810,-0.18467,-0.295338,10.861975,-0.326911,-0.074213,-0.145088
2024-01-01 00:00:10.820,-0.170065,0.710079,9.150648,0.068415,-0.101653,0.058573
2024-01-01 00:00:10.830,1.09808,-0.808624,9.258502,0.391714,-0.149557,0.161268
2024-01-01 00:00:10.840,2.081948,0.554624,14.71862,0.149772,-0.025057,-0.122492
2024-01-01 00:00:10.850,2.107385,-0.094887,13.199523,0.043918,-0.084401,0.19219
2024-01-01 00:00:10.860,2.424762,0.363604,15.096814,-0.242121,0.241655,0.017028
2024-01-01 00:00:10.870,2.00626,0.033756,13.384335,-0.345442,-0.095065,0.036162
2024-01-01 00:00:10.880,1.743031,0.482032,15.024888,0.192513,-0.160544,-0.254914
2024-01-01 00:00:10.890,-0.10382,-0.163854,10.542035,0.376537,0.388515,-0.271089
2024-01-01 00:00:10.900,-0.037859,-0.464716,9.406563,-0.109712,-0.090275,0.021617
2024-01-01 00:00:10.910,-0.019681,0.600873,11.22884,-0.284765,0.030706,0.11846
2024-01-01 00:00:10.920,0.384734,-0.048002,8.574416,-0.614542,0.090265,-0.100707
2024-01-01 00:00:10.930,0.027466,0.093719,10.817807,-0.245191,-0.227339,0.250514
2024-01-01 00:00:10.940,0.387383,0.5223,10.381166,-0.028414,0.247097,0.11024
2024-01-01 00:00:10.950,-0.042679,-0.436517,8.358236,0.399781,0.127424,-0.136251
2024-01-01 00:00:10.960,0.041578,0.251893,12.103332,0.168283,0.311677,0.004627
2024-01-01 00:00:10.970,-1.056549,-0.249525,9.756071,0.076271,-0.135844,0.371539
2024-01-01 00:00:10.980,0.484508,-0.055908,9.067649,-0.10003,0.019825,-0.186385
2024-01-01 00:00:10.990,0.183206,0.030574,8.619604,-0.145791,0.007871,0.07924
2024-01-01 00:00:11.000,0.527698,-0.634594,9.623865,0.351412,0.052778,-0.048412
2024-01-01 00:00:11.010,-1.531395,-0.329448,9.702214,0.050185,-0.290923,0.106034
2024-01-01 00:00:11.020,1.104228,0.571504,9.896838,-0.52565,0.022167,0.190091
2024-01-01 00:00:11.030,-0.073808,0.374859,9.558064,-0.168385,-0.285293,-0.057936
2024-01-01 00:00:11.040,0.585952,-0.026497,10.345709,-0.214554,0.071667,0.167837
2024-01-01 00:00:11.050,-0.54985,0.102841,9.482065,-0.136566,-0.42573,0.333181
2024-01-01 00:00:11.060,0.324004,-0.124465,8.17302,0.140728,-0.370317,0.009941
2024-01-01 00:00:11.070,-0.556993,0.573835,9.68364,-0.026861,0.16371,0.117733
2024-01-01 00:00:11.080,-0.329818,-0.084749,7.807114,-0.019216,-0.109368,-0.088566
2024-01-01 00:00:11.090,1.012044,0.098069,10.10929,0.328368,-0.197572,0.002889
2024-01-01 00:00:11.100,-0.100823,0.484771,8.981512,-0.174115,0.254169,-0.026501
2024-01-01 00:00:11.110,0.114968,-0.328828,9.948203,0.46605,0.065525,0.11954
2024-01-01 00:00:11.120,0.460048,0.659368,10.921707,-0.167827,0.174418,0.180701
2024-01-01 00:00:11.130,0.262092,-0.647385,9.007359,0.0223,-0.033248,-0.016448
2024-01-01 00:00:11.140,1.959534,0.689339,15.877823,-0.070301,0.535926,0.230043
2024-01-01 00:00:11.150,2.072973,-0.157642,14.613352,0.030855,-0.120903,0.229507
2024-01-01 00:00:11.160,3.150806,-0.102662,16.463203,0.111148,0.348899,0.127028
2024-01-01 00:00:11.170,1.849534,-0.799474,14.671081,0.108459,-0.012273,-0.077404
2024-01-01 00:00:11.180,1.986331,-0.192378,14.268943,-0.188279,-0.330902,-0.091774
2024-01-01 00:00:11.190,0.555534,-0.439838,10.391404,-0.280729,0.09657,-0.121857
2024-01-01 00:00:11.200,0.584547,-0.257034,9.441322,0.625793,0.062953,0.142375
2024-01-01 00:00:11.210,0.627642,-0.058083,9.098134,-0.120996,-0.210264,-0.181765
2024-01-01 00:00:11.220,0.337729,0.405146,9.405747,0.174803,-0.184444,0.101526
2024-01-01 00:00:11.230,-0.604364,0.087816,9.772263,-0.40191,-0.00494,-0.162166
2024-01-01 00:00:11.240,0.863677,0.130147,10.945484,-0.069903,0.06995,0.123532
2024-01-01 00:00:11.250,-0.60613,-0.463405,8.173762,-0.0318,-0.494133,0.002583
2024-01-01 00:00:11.260,0.160019,-0.372559,9.829526,0.118204,0.210624,0.200046
2024-01-01 00:00:11.270,-0.398823,0.760861,10.338668,-0.680614,-0.0989,0.171218
2024-01-01 00:00:11.280,-0.033913,-0.31099,9.973657,0.041535,-0.266349,0.21526
2024-01-01 00:00:11.290,0.173833,0.700576,10.918146,-0.287435,0.188213,0.219123
2024-01-01 00:00:11.300,0.169918,-0.102815,9.747104,0.081086,-0.004724,0.021545
2024-01-01 00:00:11.310,0.223091,0.000968,9.653869,-0.259082,0.243233,-0.173819
2024-01-01 00:00:11.320,0.85325,0.452764,10.311111,-0.213871,0.08759,-0.157878
2024-01-01 00:00:11.330,0.239806,0.53801,9.894019,-0.068407,-0.000303,-0.313027
2024-01-01 00:00:11.340,-0.129098,-0.046874,9.479714,-0.263082,-0.030546,-0.16255
2024-01-01 00:00:11.350,0.509761,-0.164227,10.246658,-0.118884,0.096543,0.010324
2024-01-01 00:00:11.360,0.628933,-0.023654,9.257961,-0.298344,-0.082706,-0.083948
2024-01-01 00:00:11.370,-0.649098,0.142956,9.292944,-0.458293,-0.170515,-0.02702
2024-01-01 00:00:11.380,0.315875,0.377021,9.363317,0.254489,0.121982,0.073907
2024-01-01 00:00:11.390,0.370745,0.001789,10.954697,-0.324012,-0.028898,-0.04561
2024-01-01 00:00:11.400,-0.157337,0.261789,7.08502,-0.04467,0.006714,-0.168274
2024-01-01 00:00:11.410,0.727405,0.693026,10.144677,0.188223,0.217876,-0.007985
2024-01-01 00:00:11.420,-0.079342,0.161294,9.838994,-0.153736,-0.022775,-0.134774
2024-01-01 00:00:11.430,0.066399,0.131829,8.387984,-0.206291,0.003007,-0.040618
2024-01-01 00:00:11.440,-0.091512,-0.642499,10.072029,0.05656,-0.11993,0.201417
2024-01-01 00:00:11.450,0.008237,-1.112799,10.212486,0.279483,0.086148,-0.040576
2024-01-01 00:00:11.460,-0.579655,0.164283,10.308835,-0.292329,0.069966,0.265644
2024-01-01 00:00:11.470,-0.761427,-0.040111,7.566553,-0.037537,0.180155,0.214745
2024-01-01 00:00:11.480,0.843095,-0.217753,10.965965,-0.433124,-0.115826,-0.086896
2024-01-01 00:00:11.490,-0.447831,0.103013,9.185875,-0.0983,-0.091563,-0.166669
2024-01-01 00:00:11.500,-0.524199,-0.025551,10.390836,0.008551,0.158427,-0.007883
2024-01-01 00:00:11.510,-1.138605,0.477051,10.436948,-0.213656,0.050443,0.172999
2024-01-01 00:00:11.520,-0.337851,0.036425,9.068314,-0.114248,-0.181244,-0.073529
2024-01-01 00:00:11.530,-0.699584,-0.315949,10.368749,-0.352057,0.261311,0.136214
2024-01-01 00:00:11.540,0.868216,0.41884,9.483873,0.01927,-0.33969,0.181266
2024-01-01 00:00:11.550,0.533941,-0.091846,8.057615,0.263924,0.156857,-0.116104
2024-01-01 00:00:11.560,-0.363859,0.222725,10.79791,-0.274286,-0.253042,-0.101408
2024-01-01 00:00:11.570,1.190975,-0.201945,9.154312,-0.155668,0.377158,0.106899
2024-01-01 00:00:11.580,0.519109,-0.274877,9.087099,0.125637,-0.30892,0.022777
2024-01-01 00:00:11.590,-0.171755,0.035603,9.469006,0.303023,0.23045,-0.102909
2024-01-01 00:00:11.600,-1.321561,0.005427,10.040312,-0.373297,-0.016327,-0.052827
2024-01-01 00:00:11.610,1.211336,0.202967,9.761549,-0.042196,-0.073321,-0.010578
2024-01-01 00:00:11.620,-0.734736,-0.113637,10.273665,0.070783,0.037079,-0.234728
2024-01-01 00:00:11.630,-0.870005,-0.77678,8.676792,-0.025514,0.12638,0.114846
2024-01-01 00:00:11.640,0.540684,-0.183063,9.181941,-0.619198,-0.18088,-0.071804
2024-01-01 00:00:11.650,1.290019,0.335785,9.711866,0.125273,-0.163158,-0.417557
2024-01-01 00:00:11.660,0.731934,-0.12579,11.415613,0.379834,0.129921,-0.003581
2024-01-01 00:00:11.670,0.298167,-0.10422,9.713715,0.029165,-0.341469,-0.111236
2024-01-01 00:00:11.680,0.314476,0.417237,10.728098,-0.257777,-0.116846,0.253323
2024-01-01 00:00:11.690,0.451243,-0.301165,9.842618,-0.128282,0.608137,-0.087817
2024-01-01 00:00:11.700,0.401283,-0.652606,9.400825,0.442478,-0.193603,-0.164647
2024-01-01 00:00:11.710,0.14868,-0.067947,9.601271,0.227491,0.229561,0.07619
2024-01-01 00:00:11.720,0.055096,-0.204806,9.667517,0.160007,-0.11719,-0.099067
2024-01-01 00:00:11.730,1.846904,-0.408722,15.490684,0.089103,0.101809,-0.116918
2024-01-01 00:00:11.740,1.481341,-0.074185,16.142921,-0.165284,0.130871,0.076425
2024-01-01 00:00:11.750,1.731593,0.207907,15.28429,-0.050143,0.225791,-0.15607
2024-01-01 00:00:11.760,0.984849,-0.003929,15.984268,-0.019481,-0.040051,-0.218591
2024-01-01 00:00:11.770,1.828003,0.129853,14.163788,0.137394,0.397777,0.2589
2024-01-01 00:00:11.780,-0.522718,0.767071,9.459223,0.37723,-0.117867,0.086925
2024-01-01 00:00:11.790,-0.583523,-0.145038,9.19724,0.279585,0.046844,-0.039631
2024-01-01 00:00:11.800,0.095119,0.117741,10.07602,-0.354846,0.049055,-0.000522
2024-01-01 00:00:11.810,0.736021,-0.215397,9.506321,0.055999,-0.224394,0.07588
2024-01-01 00:00:11.820,0.48556,-0.35801,10.427388,0.184191,-0.057174,0.146001
2024-01-01 00:00:11.830,-0.830402,-0.247416,9.022373,0.154715,0.032303,-0.113396
2024-01-01 00:00:11.840,-0.523266,-0.202515,9.846404,-0.157308,-0.086424,0.054922
2024-01-01 00:00:11.850,0.497433,0.152058,10.391082,0.728527,0.488185,-0.076006
2024-01-01 00:00:11.860,-0.51949,0.993659,8.062754,-0.319271,-0.167725,-0.028347
2024-01-01 00:00:11.870,-0.118775,-0.302886,11.6049,-0.270797,0.235885,0.024104
2024-01-01 00:00:11.880,0.29084,-0.176233,9.570454,0.058399,0.171292,-0.001002
2024-01-01 00:00:11.890,-0.512012,-0.026701,8.096816,0.529201,-0.002772,0.110335
2024-01-01 00:00:11.900,0.055717,0.167423,9.943747,-0.209049,-0.173042,0.073063
2024-01-01 00:00:11.910,-0.705366,0.111482,9.838293,-0.066457,-0.153651,-0.226225
2024-01-01 00:00:11.920,-0.317973,0.543173,9.740717,0.269323,-0.103593,-0.203673
2024-01-01 00:00:11.930,0.169085,-1.026364,10.648548,-0.004466,-0.357148,-0.055458
2024-01-01 00:00:11.940,-0.842295,-1.009671,10.442338,-0.083651,-0.200693,0.274294
2024-01-01 00:00:11.950,0.232901,-0.209756,10.062003,0.141408,-0.296495,-0.127739
2024-01-01 00:00:11.960,-0.010383,0.464158,10.190832,0.068129,0.269175,-0.031233
2024-01-01 00:00:11.970,0.292129,-0.662269,9.721713,0.25761,0.123692,-0.080452
2024-01-01 00:00:11.980,0.118395,-1.272228,11.312065,0.322867,0.157195,-0.083107
2024-01-01 00:00:11.990,0.721289,0.241609,8.5586,0.076751,0.117766,0.026736
2024-01-01 00:00:12.000,0.066212,0.103067,9.928145,0.072933,0.033394,0.210117
2024-01-01 00:00:12.010,-0.227048,-0.461158,9.865011,0.053528,0.292136,0.068395
2024-01-01 00:00:12.020,0.064665,-0.416883,10.498035,0.122283,-0.122153,-0.12053
2024-01-01 00:00:12.030,2.167269,-0.410202,14.2661,0.013793,0.021334,0.412984
2024-01-01 00:00:12.040,1.905835,0.046756,13.504853,-0.000152,0.149412,0.011786
2024-01-01 00:00:12.050,1.901463,-0.264931,15.112672,0.299157,-0.264242,-0.086583
2024-01-01 00:00:12.060,1.508822,0.208989,15.217921,0.379029,0.619318,0.211814
2024-01-01 00:00:12.070,1.529491,-1.207507,16.240201,-0.376888,0.005713,-0.070361
2024-01-01 00:00:12.080,-0.741628,-0.362448,8.735274,0.002505,0.028398,0.249437
2024-01-01 00:00:12.090,0.925089,-0.476321,10.786871,-0.172174,0.251376,-0.130596
2024-01-01 00:00:12.100,-0.657693,-0.108432,11.812833,-0.077743,0.182991,0.214505
2024-01-01 00:00:12.110,-0.366374,-0.227594,9.490411,0.100629,0.007616,0.030157
2024-01-01 00:00:12.120,-0.379858,0.337488,8.717863,0.16736,0.026026,0.193658
2024-01-01 00:00:12.130,0.473191,-0.786499,9.4657,-0.028032,-0.30083,0.285265
2024-01-01 00:00:12.140,-0.155955,0.019243,9.821848,-0.478335,-0.111293,-0.169891
2024-01-01 00:00:12.150,0.659744,0.236176,10.286965,-0.241261,0.103442,0.191366
2024-01-01 00:00:12.160,-0.356108,0.785362,9.30968,0.224125,0.088779,-0.211336
2024-01-01 00:00:12.170,0.147518,-0.203787,11.125698,-0.685107,0.244233,-0.157078
2024-01-01 00:00:12.180,-0.44169,0.137246,8.867106,0.296857,-0.0241,-0.120511
2024-01-01 00:00:12.190,1.134248,-0.763034,8.338632,0.130307,-0.277457,0.075545
2024-01-01 00:00:12.200,-0.627943,-1.011797,10.746277,0.329044,0.211346,0.004952
2024-01-01 00:00:12.210,0.163818,0.35734,7.885671,-0.049642,0.287218,-0.02507
2024-01-01 00:00:12.220,0.33511,-0.002352,9.637306,-0.515351,0.179649,0.021935
2024-01-01 00:00:12.230,0.218796,0.498511,12.447558,0.107591,-0.032727,0.088693
2024-01-01 00:00:12.240,-0.097971,-0.580949,9.799811,0.318663,0.208877,0.100237
2024-01-01 00:00:12.250,-0.068643,0.219919,8.861831,0.23118,0.685782,0.164125
2024-01-01 00:00:12.260,0.023165,0.79051,9.761442,-0.165673,0.02303,0.273005
2024-01-01 00:00:12.270,-0.077727,0.177535,9.767023,0.02169,-0.262347,-0.003204
2024-01-01 00:00:12.280,0.509651,0.116994,9.94591,-0.133209,-0.117257,-0.078163
2024-01-01 00:00:12.290,1.168814,0.003619,10.370274,-0.204817,0.125095,0.09203
2024-01-01 00:00:12.300,-0.294774,-0.664483,8.930912,0.238847,-0.320961,-0.171638
2024-01-01 00:00:12.310,-0.724283,0.573407,11.237666,-0.299383,0.033881,-0.101806
2024-01-01 00:00:12.320,-0.046679,-0.258393,10.017367,-0.223454,0.076067,0.149907
2024-01-01 00:00:12.330,1.364021,0.213396,10.424868,-0.276006,0.307024,-0.018619
2024-01-01 00:00:12.340,-0.424943,-0.661164,9.278586,-0.372562,0.262039,-0.181229
2024-01-01 00:00:12.350,0.866683,-0.498911,10.898279,0.036604,0.172917,-0.22347
2024-01-01 00:00:12.360,0.887084,0.607042,9.592534,0.290376,-0.432536,0.007308
2024-01-01 00:00:12.370,-0.29271,-0.146909,10.044809,-0.046219,0.184211,0.171284
2024-01-01 00:00:12.380,0.30085,0.614736,9.020592,-0.376437,0.141103,0.169282
2024-01-01 00:00:12.390,0.861015,-0.033092,8.966596,0.209986,0.051189,0.016632
2024-01-01 00:00:12.400,-0.200464,-0.779123,10.392222,0.421425,-0.346044,0.301336
2024-01-01 00:00:12.410,-0.107643,0.377345,9.434709,-0.161561,-0.155355,-0.015723
2024-01-01 00:00:12.420,-0.307564,-0.249524,9.087666,-0.119639,-0.233365,-0.020785
2024-01-01 00:00:12.430,-0.536553,0.295545,9.265867,0.128915,-0.403002,-0.385115
2024-01-01 00:00:12.440,-0.343306,0.010664,10.401314,0.405468,-0.000583,-0.067104
2024-01-01 00:00:12.450,-0.647158,-0.652739,9.277834,-0.129959,-0.159564,0.127802
2024-01-01 00:00:12.460,0.018022,0.069497,9.710464,-0.333112,0.525061,0.234594
2024-01-01 00:00:12.470,-0.407123,0.929002,9.822713,0.157855,-0.033754,-0.124535
2024-01-01 00:00:12.480,0.123614,0.208533,8.187923,0.199767,0.258751,0.069338
2024-01-01 00:00:12.490,-0.82268,-0.02433,8.565427,0.001533,-0.31382,0.157032
2024-01-01 00:00:12.500,0.174953,0.45487,10.094491,-0.139533,-0.106018,0.001681
2024-01-01 00:00:12.510,0.440728,0.089113,9.186473,0.248595,0.01938,-0.342492
2024-01-01 00:00:12.520,-1.054188,0.088633,10.703989,0.132009,-0.181631,0.037093
2024-01-01 00:00:12.530,0.197782,-0.461757,10.627919,-0.192109,-0.08444,0.114215
2024-01-01 00:00:12.540,0.64913,0.098918,10.418417,0.012274,-0.04359,-0.142113
2024-01-01 00:00:12.550,-0.639598,0.437993,11.349527,-0.337927,-0.046782,-0.038123
2024-01-01 00:00:12.560,0.884373,-0.353654,9.739706,0.171473,0.371024,-0.173324
2024-01-01 00:00:12.570,0.221556,0.602562,10.358954,-0.065558,0.075645,-0.385522
2024-01-01 00:00:12.580,-0.372775,-0.038792,9.315597,-0.108928,0.095902,0.154051
2024-01-01 00:00:12.590,-0.029488,-0.375527,11.884705,-0.008219,0.107931,-0.000562
2024-01-01 00:00:12.600,0.295215,0.421998,11.488154,0.010077,0.122525,0.239651
2024-01-01 00:00:12.610,0.040188,-0.121314,9.820051,0.223733,-0.016577,0.128598
2024-01-01 00:00:12.620,2.164867,0.321275,15.307052,0.147773,-0.064149,-0.053131
2024-01-01 00:00:12.630,1.393194,-0.123414,16.129966,-0.039102,0.033363,-0.012477
2024-01-01 00:00:12.640,1.96955,-0.025306,14.85552,0.190917,0.231361,0.084927
2024-01-01 00:00:12.650,1.132498,0.208776,14.424496,0.100184,0.225248,0.145033
2024-01-01 00:00:12.660,1.821189,0.123049,15.719395,-0.10665,-0.04808,0.048401
2024-01-01 00:00:12.670,-0.477941,-0.84411,9.87636,-0.03118,0.153569,0.165839
2024-01-01 00:00:12.680,-0.388911,-0.474286,9.964813,-0.037056,-0.038917,-0.0445
2024-01-01 00:00:12.690,0.653584,0.39314,9.104206,0.126315,0.006774,-0.149572
2024-01-01 00:00:12.700,0.57703,-0.055894,8.356849,-0.091756,-0.094705,-0.009721
2024-01-01 00:00:12.710,0.322082,-0.221538,10.009776,-0.097602,-0.036329,0.030778
2024-01-01 00:00:12.720,-0.57756,-0.574677,10.575598,0.492189,0.268266,-0.18023
2024-01-01 00:00:12.730,-0.167301,-0.456728,9.618967,0.234934,0.018484,-0.200508
2024-01-01 00:00:12.740,0.641425,-0.855221,11.025219,-0.19015,0.027057,0.067108
2024-01-01 00:00:12.750,0.074933,-0.042842,9.214487,0.142735,-0.289444,-0.060954
2024-01-01 00:00:12.760,1.226345,-0.253139,8.91772,0.029588,-0.061849,-0.024876
2024-01-01 00:00:12.770,0.207967,-0.408867,9.753123,0.097888,-0.048263,-0.053954
2024-01-01 00:00:12.780,0.101546,-0.028816,9.740127,0.034335,-0.165829,0.22809
2024-01-01 00:00:12.790,-0.163445,0.15396,10.461394,0.297411,0.004333,0.189264
2024-01-01 00:00:12.800,0.07061,0.885423,9.154381,0.086405,-0.085836,-0.185603
2024-01-01 00:00:12.810,-0.080618,-0.639527,10.967408,-0.015522,0.015999,-0.079919
2024-01-01 00:00:12.820,0.374412,0.490418,11.474012,0.260548,0.024301,0.127501
2024-01-01 00:00:12.830,0.505856,0.411622,9.776884,0.058321,-0.191151,0.09029
2024-01-01 00:00:12.840,-0.415592,-0.329556,10.867255,0.03037,-0.07974,-0.006219
2024-01-01 00:00:12.850,-0.703889,0.085969,8.916203,0.078506,0.015475,-0.17064
2024-01-01 00:00:12.860,-0.970894,-0.193579,10.719637,-0.023402,0.23686,-0.102381
2024-01-01 00:00:12.870,0.2686,0.078546,10.695996,0.002307,0.051344,-0.077515
2024-01-01 00:00:12.880,-0.583405,0.638362,10.540468,-0.146674,-0.132387,0.041549
2024-01-01 00:00:12.890,-1.138341,0.256171,9.796834,-0.187792,0.079801,0.255559
2024-01-01 00:00:12.900,0.205461,0.215141,7.310705,-0.249643,0.34151,-0.103032
2024-01-01 00:00:12.910,1.318173,-0.182021,9.267099,-0.347996,0.183341,-0.153905
2024-01-01 00:00:12.920,1.87679,-0.627756,14.450475,-0.219929,0.109505,-0.016288
2024-01-01 00:00:12.930,2.323352,-0.088182,14.152396,-0.043567,0.145118,0.154761
2024-01-01 00:00:12.940,1.923267,0.510395,15.083418,0.025779,0.287991,-0.217032
2024-01-01 00:00:12.950,1.827712,-0.645992,14.625557,-0.067824,0.215125,0.218045
2024-01-01 00:00:12.960,2.365962,-0.446303,14.282378,-0.588926,0.113352,-0.025805
2024-01-01 00:00:12.970,-0.153483,0.053411,8.914255,0.393647,0.213728,-0.110148
2024-01-01 00:00:12.980,0.141384,-0.416509,9.204676,0.27162,-0.21633,-0.240028
2024-01-01 00:00:12.990,0.170098,-0.335237,10.758788,0.11144,-0.300453,0.105978
2024-01-01 00:00:13.000,-0.353253,-0.179182,9.250773,0.476873,0.03142,-0.025676
2024-01-01 00:00:13.010,0.524542,-0.577656,9.374362,-0.244341,0.013736,0.025606
2024-01-01 00:00:13.020,-0.09251,-0.412054,9.423634,0.471906,-0.108782,-0.135122
2024-01-01 00:00:13.030,-0.3996,0.29755,10.096789,-0.241304,0.165171,-0.047864
2024-01-01 00:00:13.040,0.28368,-0.553017,10.195987,0.059684,-0.372573,-0.072987
2024-01-01 00:00:13.050,-0.475065,-0.6759,7.234221,-0.318459,-0.106954,-0.015089
2024-01-01 00:00:13.060,0.014901,-0.266501,10.674303,0.003674,-0.096991,-0.100433
2024-01-01 00:00:13.070,-0.004822,0.309617,11.025167,0.096542,-0.32726,-0.230127
2024-01-01 00:00:13.080,0.574167,-0.083298,8.921542,-0.038673,0.298946,0.409275
2024-01-01 00:00:13.090,0.250997,-0.196518,8.987436,0.178469,-0.27184,-0.204511
2024-01-01 00:00:13.100,-0.013233,0.018764,9.429086,0.024754,-0.117668,0.027219
2024-01-01 00:00:13.110,0.432394,-0.738434,9.170421,-0.130604,0.181596,-0.265804
2024-01-01 00:00:13.120,0.735072,0.20926,9.999442,-0.141703,0.129209,-0.299557
2024-01-01 00:00:13.130,0.294942,0.162193,8.16324,0.202728,-0.221635,0.014674
2024-01-01 00:00:13.140,0.005474,-0.173137,8.864233,-0.163436,0.136498,0.026155
2024-01-01 00:00:13.150,-0.693633,0.425506,11.112161,0.228851,0.057957,0.189225
2024-01-01 00:00:13.160,-0.563179,-0.476931,9.024726,0.305678,0.466607,0.059932
2024-01-01 00:00:13.170,-0.161388,0.477106,10.86194,-0.417178,0.080788,-0.022472
2024-01-01 00:00:13.180,-0.32228,0.065351,10.110616,0.283232,-0.028248,-0.14244
2024-01-01 00:00:13.190,-0.098861,-0.142362,8.27936,0.515106,-0.1713,0.224852
2024-01-01 00:00:13.200,0.029954,-0.008407,10.347488,0.063001,-0.148849,0.139328
2024-01-01 00:00:13.210,0.280075,-0.045373,9.710453,0.149771,-0.165154,-0.186949
2024-01-01 00:00:13.220,-0.037276,0.51618,9.424675,0.259251,0.27422,0.005695
2024-01-01 00:00:13.230,0.257238,-0.455435,10.017234,-0.068871,0.003594,0.021608
2024-01-01 00:00:13.240,0.034091,-0.322546,10.21154,0.04557,0.113049,-0.051848
2024-01-01 00:00:13.250,-1.044528,0.438356,10.408623,-0.32855,0.30285,0.115778
2024-01-01 00:00:13.260,-0.496674,-0.251911,10.806802,0.034659,-0.471693,0.12476
2024-01-01 00:00:13.270,-0.076186,0.380925,10.155283,0.124528,0.255775,-0.028573
2024-01-01 00:00:13.280,-0.639626,0.718861,8.646214,0.129041,0.011079,-0.04213
2024-01-01 00:00:13.290,0.317212,-0.169959,9.409296,0.266356,0.08701,0.224844
2024-01-01 00:00:13.300,0.809385,0.288216,12.299819,-0.193701,-0.165681,0.139926
2024-01-01 00:00:13.310,0.64442,-0.488012,10.422919,-0.133152,-0.151025,0.010854
2024-01-01 00:00:13.320,-0.112858,0.319252,11.814417,0.473877,0.097769,-0.244381
2024-01-01 00:00:13.330,0.788221,0.084356,10.990537,-0.037582,0.47692,0.0516
2024-01-01 00:00:13.340,0.078608,0.200095,10.014565,0.050008,0.200663,0.104713
2024-01-01 00:00:13.350,-0.178234,-0.273077,10.06499,-0.016753,0.253105,-0.413178
2024-01-01 00:00:13.360,-0.324337,-0.702638,9.779053,-0.20542,-0.0384,0.03778
2024-01-01 00:00:13.370,-0.159931,0.212876,8.339817,0.405882,-0.120041,-0.062504
2024-01-01 00:00:13.380,-0.205248,-0.87282,9.825268,-0.131925,-0.156161,-0.033128
2024-01-01 00:00:13.390,0.090108,-0.134239,10.834231,-0.281821,-0.097655,-0.136107
2024-01-01 00:00:13.400,0.084903,0.39812,9.302705,-0.112685,-0.410556,-0.022228
2024-01-01 00:00:13.410,0.001611,0.081173,10.158512,-0.500427,-0.144984,0.208799
2024-01-01 00:00:13.420,0.231031,0.824149,10.530446,-0.162822,-0.112071,-0.06696
2024-01-01 00:00:13.430,0.629554,0.433621,9.04041,-0.242032,-0.035072,0.144836
2024-01-01 00:00:13.440,0.502077,-0.276599,9.428198,0.154357,0.02635,-0.12095
2024-01-01 00:00:13.450,-0.78514,0.011554,8.948847,-0.168354,0.07249,0.113813
2024-01-01 00:00:13.460,-1.350386,-0.020038,9.114448,0.221951,-0.002985,0.000248
2024-01-01 00:00:13.470,0.494022,-0.669261,8.720686,0.349621,-0.116289,0.052804
2024-01-01 00:00:13.480,-0.722737,-0.397789,9.048221,0.195294,-0.392672,0.001073
2024-01-01 00:00:13.490,-0.118845,-0.237202,11.01086,-0.053847,-0.115062,0.096244
2024-01-01 00:00:13.500,-0.618697,-0.861321,9.035506,0.035279,-0.19449,-0.385138
2024-01-01 00:00:13.510,0.927203,0.02009,15.086984,-0.381246,0.093213,-0.212974
2024-01-01 00:00:13.520,2.166298,-0.105357,14.554573,-0.033445,0.181857,0.062562
2024-01-01 00:00:13.530,2.281403,-0.707634,15.977321,-0.21511,0.187714,-0.306531
2024-01-01 00:00:13.540,1.57517,0.170982,16.089243,0.173582,0.151391,-0.079587
2024-01-01 00:00:13.550,0.509986,0.302814,15.711003,0.643188,-0.026705,-0.008151
2024-01-01 00:00:13.560,-0.288827,0.096036,10.06899,0.124955,-0.104391,-0.124221
2024-01-01 00:00:13.570,0.207166,-0.137081,9.614524,-0.497785,-0.149421,-0.103734
2024-01-01 00:00:13.580,-0.781974,0.25018,8.801674,-0.090308,-0.3015,0.040737
2024-01-01 00:00:13.590,0.096952,0.287733,11.454225,0.030623,0.198371,0.151394
2024-01-01 00:00:13.600,-0.008095,0.130032,9.167317,0.021839,-0.034942,-0.143767
2024-01-01 00:00:13.610,0.3063,-0.348811,10.371445,-0.182703,-0.249268,-0.086259
2024-01-01 00:00:13.620,0.063228,0.117002,10.706392,0.061323,-0.165298,-0.109689
2024-01-01 00:00:13.630,-0.51451,0.505688,9.340233,-0.310625,-0.173395,-0.363207
2024-01-01 00:00:13.640,0.632687,-0.252374,10.688159,-0.236227,0.008605,0.021257
2024-01-01 00:00:13.650,-0.083823,0.887428,10.456524,0.161449,0.213494,0.140208
2024-01-01 00:00:13.660,-0.014437,-0.222342,11.271857,-0.253916,-0.069598,0.152496
2024-01-01 00:00:13.670,-0.493465,0.013708,9.412933,0.134553,-0.450507,-0.130615
2024-01-01 00:00:13.680,-0.234385,-0.284461,8.722159,-0.342366,-0.037836,-0.187755
2024-01-01 00:00:13.690,-0.467839,0.094444,9.382356,0.441206,-0.031239,0.003241
2024-01-01 00:00:13.700,-0.091445,-0.73696,9.98669,-0.193567,-0.044984,0.124391
2024-01-01 00:00:13.710,0.905066,-0.230976,9.859248,-0.055917,-0.125492,0.023228
2024-01-01 00:00:13.720,-0.725393,-0.461967,9.477152,0.082653,0.043488,0.043396
2024-01-01 00:00:13.730,-0.853171,0.057248,8.194819,-0.141337,0.013228,0.171275
2024-01-01 00:00:13.740,0.777881,0.420651,10.208029,0.035851,-0.004966,-0.11087
2024-01-01 00:00:13.750,-0.11068,0.273261,11.478603,0.143839,0.082528,-0.032996
2024-01-01 00:00:13.760,-0.353772,-1.003212,10.202757,0.240153,-0.085967,0.245191
2024-01-01 00:00:13.770,0.54985,0.863795,10.325329,0.197874,-0.097317,-0.029522
2024-01-01 00:00:13.780,-0.320219,0.124903,10.294289,-0.042953,0.276025,-0.190101
2024-01-01 00:00:13.790,0.965503,-0.328459,10.145901,-0.036658,0.111871,-0.100403
2024-01-01 00:00:13.800,0.358453,0.066465,10.598189,0.587277,0.165389,-0.140727
2024-01-01 00:00:13.810,1.622017,0.074528,15.314486,0.237472,0.245221,0.053574
2024-01-01 00:00:13.820,3.020677,-0.282077,14.715475,-0.230456,0.105189,-0.134392
2024-01-01 00:00:13.830,1.559728,0.083719,14.306593,0.024997,0.185678,0.040655
2024-01-01 00:00:13.840,2.272383,-0.256961,14.769368,-0.083786,-0.315869,-0.11041
2024-01-01 00:00:13.850,2.038251,-0.171045,15.245754,-0.033834,0.040831,-0.318507
2024-01-01 00:00:13.860,0.688296,-0.290296,9.542594,-0.307374,-0.036544,0.045993
2024-01-01 00:00:13.870,0.825649,-0.60602,10.075931,-0.102981,0.335537,0.02227
2024-01-01 00:00:13.880,0.016922,0.061689,10.181521,0.452889,0.185529,0.077664
2024-01-01 00:00:13.890,-0.39837,0.247582,10.51487,0.144769,-0.126089,-0.100948
2024-01-01 00:00:13.900,0.24321,0.217796,10.895245,-0.62279,0.074559,-0.116932
2024-01-01 00:00:13.910,-0.358342,0.346828,9.875994,0.304181,0.033536,0.06022
2024-01-01 00:00:13.920,1.064579,0.137196,8.703621,0.272407,0.090866,0.227853
2024-01-01 00:00:13.930,0.072193,-0.225343,9.518042,-0.089821,-0.203768,0.001675
2024-01-01 00:00:13.940,-0.193164,0.355178,9.847277,0.179316,0.072003,0.063688
2024-01-01 00:00:13.950,0.09765,-0.57423,8.25694,-0.21485,-0.04563,-0.048238
2024-01-01 00:00:13.960,-0.712293,-0.380984,10.98481,-0.117564,0.05649,-0.231545
2024-01-01 00:00:13.970,-0.513741,-0.407857,9.930452,0.374637,-0.144877,0.145114
2024-01-01 00:00:13.980,0.634719,0.456864,10.132624,-0.067933,-0.117013,0.136262
2024-01-01 00:00:13.990,-0.347333,0.3988,10.965235,-0.467433,0.234768,0.106616
2024-01-01 00:00:14.000,-0.553554,0.20613,9.276899,-0.015826,-0.21031,-0.027292
2024-01-01 00:00:14.010,0.283755,0.453426,10.295639,-0.019647,-0.195551,0.089558
2024-01-01 00:00:14.020,0.626941,-0.371937,9.717055,0.299592,-0.010316,0.134064
2024-01-01 00:00:14.030,0.380147,0.147456,9.654263,0.003584,-0.154378,0.243024
2024-01-01 00:00:14.040,0.52666,-0.052949,9.156725,-0.105396,-0.177006,0.148279
2024-01-01 00:00:14.050,-0.400155,0.358231,11.2191,0.261264,0.021015,0.009573
2024-01-01 00:00:14.060,-0.751782,-0.04874,9.492327,0.030198,-0.301013,-0.196238
2024-01-01 00:00:14.070,0.79383,-0.162831,10.401747,-0.187506,-0.201592,0.023349
2024-01-01 00:00:14.080,-0.170617,0.228804,8.223744,0.288749,0.410819,0.038487
2024-01-01 00:00:14.090,-0.132628,0.37062,10.80827,0.048415,0.091895,0.106354
2024-01-01 00:00:14.100,0.702283,-0.28271,10.700171,0.000731,-0.149313,0.203084
2024-01-01 00:00:14.110,0.294107,-0.025835,9.892429,0.044477,0.083643,-0.014273
2024-01-01 00:00:14.120,0.241051,-0.44772,9.618007,-0.267667,0.113466,0.315148
2024-01-01 00:00:14.130,1.144745,-1.05668,10.1484,-0.131913,0.198883,-0.263893
2024-01-01 00:00:14.140,-0.34026,0.084794,11.746317,0.000896,-0.025431,0.062901
2024-01-01 00:00:14.150,0.490595,0.257567,8.318302,-0.048666,0.1953,-0.119778
2024-01-01 00:00:14.160,0.030146,0.110854,10.471595,0.318107,-0.407689,-0.286083
2024-01-01 00:00:14.170,0.142018,-0.824665,9.038772,0.054351,-0.211262,-0.030266
2024-01-01 00:00:14.180,0.808178,-0.148409,9.793149,0.213726,0.032774,-0.218576
2024-01-01 00:00:14.190,0.268518,-0.938361,9.600293,0.002349,0.065927,-0.024214
2024-01-01 00:00:14.200,0.284624,0.579384,9.447643,0.264072,-0.182356,0.005215
2024-01-01 00:00:14.210,0.567088,-0.459401,9.801147,0.099382,0.051884,0.167781
2024-01-01 00:00:14.220,-0.192969,0.531036,8.850491,0.003355,-0.124768,-0.226138
2024-01-01 00:00:14.230,-0.443732,0.400103,10.680687,-0.003321,-0.055392,0.136267
2024-01-01 00:00:14.240,-0.552443,-0.38095,8.292155,-0.23861,0.204955,0.014712
2024-01-01 00:00:14.250,-1.039711,-0.479168,10.266641,0.126729,0.181787,0.154327
2024-01-01 00:00:14.260,1.08722,0.148207,9.533751,-0.010051,-0.199412,-0.064763
2024-01-01 00:00:14.270,-0.583321,-0.357149,8.819398,-0.125498,-0.21145,-0.199837
2024-01-01 00:00:14.280,-0.116988,0.043351,9.981216,0.276615,-0.082235,-0.182625
2024-01-01 00:00:14.290,-0.146365,-0.204236,8.492819,-0.312554,-0.005349,-0.193771
2024-01-01 00:00:14.300,0.162541,-0.75343,9.843598,-0.105624,-0.13158,0.071672
2024-01-01 00:00:14.310,0.431321,-0.943488,8.606246,0.25693,0.208128,0.221538
2024-01-01 00:00:14.320,0.454975,0.095887,10.200236,0.078881,0.069478,-0.084743
2024-01-01 00:00:14.330,-0.308302,-0.237539,9.027994,-0.011965,0.081217,0.09437
2024-01-01 00:00:14.340,-0.088366,-0.233957,9.428459,0.062751,-0.253308,-0.228516
2024-01-01 00:00:14.350,0.149414,0.29435,10.058681,0.044854,0.233458,0.027048
2024-01-01 00:00:14.360,-0.131495,0.496366,9.156429,-0.379166,-0.564034,0.100284
2024-01-01 00:00:14.370,0.849884,-0.115286,9.760962,-0.087315,0.166811,-0.217219
2024-01-01 00:00:14.380,0.259603,-0.144073,8.529299,0.40413,0.186862,-0.030583
2024-01-01 00:00:14.390,0.388567,0.211561,10.343721,-0.164831,-0.08648,0.107388
2024-01-01 00:00:14.400,2.230498,-0.573984,16.473117,-0.079575,0.254582,-0.440066
2024-01-01 00:00:14.410,2.500474,0.094394,17.342209,-0.135405,-0.01262,0.200318
2024-01-01 00:00:14.420,1.975715,0.233448,15.057128,-0.021754,0.012486,0.053052
2024-01-01 00:00:14.430,1.1943,0.287737,15.646821,-0.145781,0.067906,0.107509
2024-01-01 00:00:14.440,2.091335,-0.819246,13.473591,0.121685,0.637315,-0.061908
2024-01-01 00:00:14.450,-0.344405,-0.322053,11.081313,0.049328,0.268887,-0.258408
2024-01-01 00:00:14.460,-0.279506,-0.371505,10.466689,0.193387,0.140226,0.080109
2024-01-01 00:00:14.470,0.31004,0.042252,9.400592,-0.262735,-0.182561,-0.012389
2024-01-01 00:00:14.480,0.654742,0.203355,10.856655,-0.085085,0.028718,0.004817
2024-01-01 00:00:14.490,0.011247,0.633109,9.594713,-0.056431,-0.162625,0.163141
2024-01-01 00:00:14.500,0.163295,-0.20937,9.422511,0.113912,0.164422,0.11431
2024-01-01 00:00:14.510,0.900046,-0.210473,10.212133,-0.198305,0.028093,0.288186
2024-01-01 00:00:14.520,0.127298,0.486311,8.910402,0.228913,-0.224904,0.023078
2024-01-01 00:00:14.530,1.37564,0.125452,10.674295,0.296604,0.016225,-0.103682
2024-01-01 00:00:14.540,0.299013,0.536217,8.916633,-0.247218,-0.169883,-0.028263
2024-01-01 00:00:14.550,-0.931003,0.122132,8.921654,-0.122718,0.030243,0.06235
2024-01-01 00:00:14.560,0.398329,-0.48946,9.040402,-0.132983,-0.171815,0.152378
2024-01-01 00:00:14.570,0.201537,-0.563913,10.452537,0.658097,0.005498,-0.220055
2024-01-01 00:00:14.580,0.681957,-0.65629,9.288208,-0.107475,0.150094,0.001281
2024-01-01 00:00:14.590,0.355945,0.280048,8.669596,0.419406,-0.01061,0.241431
2024-01-01 00:00:14.600,-0.073209,0.502776,9.297595,-0.316658,-0.078178,-0.036031
2024-01-01 00:00:14.610,-0.647348,0.78228,9.782892,-0.247413,0.040655,0.139652
2024-01-01 00:00:14.620,-0.110521,0.356634,8.810897,-0.171651,0.139437,0.073968
2024-01-01 00:00:14.630,-0.449713,0.491881,8.835678,-0.211422,-0.221437,0.143379
2024-01-01 00:00:14.640,-0.306952,-0.245347,11.596157,-0.066975,0.052131,-0.121464
2024-01-01 00:00:14.650,0.311211,-0.489164,9.081962,-0.177195,0.263508,-0.12081
2024-01-01 00:00:14.660,0.882962,0.359584,9.536706,-0.204835,0.114731,0.003041
2024-01-01 00:00:14.670,0.208683,0.176679,9.499317,0.289618,0.011551,-0.229833
2024-01-01 00:00:14.680,-0.632323,0.045449,9.453532,0.305948,0.127948,-0.040461
2024-01-01 00:00:14.690,0.235084,0.163858,10.335659,0.237324,0.090499,0.037931
2024-01-01 00:00:14.700,2.512719,0.136707,15.782129,0.131,0.15072,0.267695
2024-01-01 00:00:14.710,1.557577,0.543055,14.721163,0.023186,-0.404786,0.060408
2024-01-01 00:00:14.720,1.809138,0.547779,13.933939,-0.124258,-0.310691,0.093784
2024-01-01 00:00:14.730,1.887766,0.230205,16.058176,-0.238289,0.200966,0.174671
2024-01-01 00:00:14.740,1.464985,0.357775,14.899341,0.090749,-0.301056,-0.144699
2024-01-01 00:00:14.750,0.342778,0.217448,11.273852,-0.293408,0.080308,-0.024762
2024-01-01 00:00:14.760,-0.063951,-0.195075,7.910234,-0.24848,-0.07041,0.363812
2024-01-01 00:00:14.770,0.221828,0.320027,9.975311,0.288228,-0.199238,-0.011868
2024-01-01 00:00:14.780,-0.469261,-0.589871,11.433141,0.475162,0.06993,0.167465
2024-01-01 00:00:14.790,-0.231306,0.445796,9.511139,0.098324,0.040207,0.144561
2024-01-01 00:00:14.800,0.381959,-0.505283,9.619233,0.276614,0.422069,-0.221717
2024-01-01 00:00:14.810,-0.197136,0.120895,10.060003,-0.061462,-0.124962,0.046572
2024-01-01 00:00:14.820,0.913132,-0.3575,9.337259,-0.334419,0.288022,0.022012
2024-01-01 00:00:14.830,-0.211308,0.234084,9.545987,0.153043,0.070485,0.049494
2024-01-01 00:00:14.840,0.118802,-0.01435,9.524208,0.142322,-0.132204,-0.113117
2024-01-01 00:00:14.850,0.493107,-0.674582,9.279202,0.017917,0.159849,-0.167538
2024-01-01 00:00:14.860,-0.749961,0.177956,10.849613,-0.060594,0.113148,-0.071402
2024-01-01 00:00:14.870,-0.931028,-0.24446,10.200072,0.240553,0.007169,-0.014669
2024-01-01 00:00:14.880,-0.806691,0.372725,10.022031,-0.246433,0.053259,0.177748
2024-01-01 00:00:14.890,0.667591,0.000561,10.494051,-0.193445,-0.119397,0.272597
2024-01-01 00:00:14.900,-0.291795,0.167263,9.586355,-0.252027,-0.165157,0.20949
2024-01-01 00:00:14.910,1.352648,-0.405052,9.155024,0.021243,0.151888,0.129028
2024-01-01 00:00:14.920,-0.298346,-0.249288,9.30018,-0.271973,-0.044788,-0.150651
2024-01-01 00:00:14.930,0.097582,-0.194004,9.811508,-0.171061,-0.016017,-0.061334
2024-01-01 00:00:14.940,0.815391,0.362385,8.913907,-0.176439,0.055964,0.031489
