timestamp,acc_x,acc_y,acc_z,gyro_x,gyro_y,gyro_z
2024-01-01 00:00:00.000,0.059606,0.321063,8.98148,0.091848,0.590978,-0.011474
2024-01-01 00:00:00.010,0.009067,0.446384,9.226814,0.143472,0.223313,0.004719
2024-01-01 00:00:00.020,0.129006,0.498889,9.272908,0.089148,0.405834,0.019796
2024-01-01 00:00:00.030,0.259603,0.773199,9.493966,-0.189191,0.434156,0.097703
2024-01-01 00:00:00.040,0.074194,0.610882,9.697976,0.039802,0.43269,-0.030551
2024-01-01 00:00:00.050,0.09951,0.380526,10.078708,-0.065767,0.441751,-0.031249
2024-01-01 00:00:00.060,0.342256,0.59507,9.903761,0.062973,0.480397,0.142573
2024-01-01 00:00:00.070,0.269781,0.346309,9.698383,0.219137,0.38776,0.013757
2024-01-01 00:00:00.080,0.146051,0.656433,10.486059,0.152268,0.330599,-0.043218
2024-01-01 00:00:00.090,0.291922,0.463792,10.092965,0.267379,0.306598,0.025994
2024-01-01 00:00:00.100,0.195327,0.502209,10.383151,0.184403,0.26096,0.045292
2024-01-01 00:00:00.110,0.218835,0.664968,10.598943,0.001185,0.405882,0.202889
2024-01-01 00:00:00.120,0.327174,0.343161,10.620093,-0.132137,0.209156,0.159168
2024-01-01 00:00:00.130,0.09156,0.321045,10.919575,0.201373,0.362172,0.18356
2024-01-01 00:00:00.140,0.136747,0.409089,10.834171,0.17075,0.23526,0.163808
2024-01-01 00:00:00.150,0.298384,0.593505,10.559667,0.091828,0.141598,0.18023
2024-01-01 00:00:00.160,0.265948,0.275726,11.372065,0.017346,0.248429,0.055664
2024-01-01 00:00:00.170,0.446307,0.106721,10.920015,0.145315,0.05606,0.100854
2024-01-01 00:00:00.180,0.320194,0.380372,10.869942,0.221893,0.188301,0.043423
2024-01-01 00:00:00.190,0.279663,0.488068,11.174254,0.336556,0.10501,0.111487
2024-01-01 00:00:00.200,0.644396,0.552671,11.013137,0.290361,-0.02474,0.188591
2024-01-01 00:00:00.210,0.460175,0.339292,11.058995,0.471407,0.07734,0.149986
2024-01-01 00:00:00.220,0.513466,0.331201,11.581516,0.164506,0.046505,0.249308
2024-01-01 00:00:00.230,0.351808,0.504229,10.879843,0.404457,0.086929,0.058052
2024-01-01 00:00:00.240,0.474164,0.12609,10.850261,0.313956,0.031357,0.194159
2024-01-01 00:00:00.250,0.568788,0.288063,10.930949,0.400776,-0.057781,0.058844
2024-01-01 00:00:00.260,0.432599,0.341313,11.132963,0.273743,-0.283571,0.170596
2024-01-01 00:00:00.270,0.630276,0.355717,10.443103,0.462997,0.114841,0.226424
2024-01-01 00:00:00.280,0.526802,0.223577,10.274618,0.377644,-0.37719,0.153948
2024-01-01 00:00:00.290,0.576758,0.271447,10.557403,0.268044,-0.12349,0.218879
2024-01-01 00:00:00.300,0.551616,-0.049084,10.226115,0.355026,-0.213016,0.101456
2024-01-01 00:00:00.310,0.857316,0.152391,10.451414,0.334135,-0.431613,0.048345
2024-01-01 00:00:00.320,0.643791,0.267356,10.599298,0.427507,-0.330016,0.228965
2024-01-01 00:00:00.330,0.527985,0.076328,10.160514,0.232661,-0.34724,0.326638
2024-01-01 00:00:00.340,0.762236,0.182289,9.929986,0.375638,-0.201995,0.109897
2024-01-01 00:00:00.350,0.524758,0.209608,10.202001,0.431013,-0.463209,0.289564
2024-01-01 00:00:00.360,0.703148,0.095439,10.293306,0.39144,-0.425962,0.197212
2024-01-01 00:00:00.370,0.448839,0.137379,9.542536,0.55249,-0.689654,0.088573
2024-01-01 00:00:00.380,0.529612,-0.018383,10.05615,0.486594,-0.213751,0.106335
2024-01-01 00:00:00.390,0.716687,0.052443,9.937055,0.395139,-0.560708,0.199281
2024-01-01 00:00:00.400,0.784817,0.130449,9.850345,0.423832,-0.401028,0.166558
2024-01-01 00:00:00.410,0.718967,0.05597,9.793649,0.434567,-0.458066,0.094511
2024-01-01 00:00:00.420,0.685788,-0.05339,9.915506,0.448205,-0.460901,0.064381
2024-01-01 00:00:00.430,0.663856,0.023737,9.151388,0.180914,-0.352787,0.132259
2024-01-01 00:00:00.440,0.521947,0.062426,9.143319,0.363457,-0.24783,0.215325
2024-01-01 00:00:00.450,0.611431,-0.289447,8.888105,0.220617,-0.414203,0.198863
2024-01-01 00:00:00.460,0.640039,0.075566,8.870437,0.550717,-0.359385,0.158563
2024-01-01 00:00:00.470,0.818739,-0.123856,9.132986,0.388061,-0.389786,0.213832
2024-01-01 00:00:00.480,0.728758,-0.052318,8.296081,0.36967,-0.296101,0.279638
2024-01-01 00:00:00.490,0.470674,0.020561,8.303012,0.497467,-0.460459,0.226456
2024-01-01 00:00:00.500,0.714927,-0.307276,8.752497,0.436986,-0.260389,0.183449
2024-01-01 00:00:00.510,0.622717,-0.247183,8.557715,0.246808,-0.238611,0.265368
2024-01-01 00:00:00.520,0.579686,-0.215833,8.111573,0.369158,-0.222402,0.112045
2024-01-01 00:00:00.530,0.72542,-0.29417,8.321291,0.332362,-0.410067,0.168298
2024-01-01 00:00:00.540,0.765965,-0.010572,8.104522,0.157653,-0.327813,0.167411
2024-01-01 00:00:00.550,0.743361,-0.339927,8.312483,0.278085,-0.253988,0.081503
2024-01-01 00:00:00.560,0.519414,-0.321812,7.881347,0.33233,-0.420816,0.143587
2024-01-01 00:00:00.570,0.570695,-0.248308,8.051942,0.33352,-0.037138,0.00766
2024-01-01 00:00:00.580,0.634415,-0.434415,8.396723,0.16194,-0.200987,0.322878
2024-01-01 00:00:00.590,0.697792,-0.354571,7.83462,0.470044,-0.135356,0.090929
2024-01-01 00:00:00.600,0.508509,-0.285514,7.654767,0.311182,-0.20767,0.288606
2024-01-01 00:00:00.610,0.528253,-0.379636,7.789081,0.319096,-0.265914,0.160342
2024-01-01 00:00:00.620,0.401555,-0.366526,7.492059,0.3534,-0.146857,0.19785
2024-01-01 00:00:00.630,0.373834,-0.43399,8.164292,0.201076,-0.015354,0.108719
2024-01-01 00:00:00.640,0.597251,-0.566859,7.605337,0.340333,0.072091,0.159419
2024-01-01 00:00:00.650,0.644193,-0.360665,7.49424,0.231062,0.04368,0.189595
2024-01-01 00:00:00.660,0.453853,-0.202262,7.364829,0.156692,0.098727,0.185306
2024-01-01 00:00:00.670,0.563347,-0.423689,7.868397,0.321913,0.049225,0.188531
2024-01-01 00:00:00.680,0.466152,-0.411336,7.840183,0.420576,0.181284,0.091321
2024-01-01 00:00:00.690,0.324606,-0.367122,7.537138,0.316706,0.331086,0.076434
2024-01-01 00:00:00.700,0.424112,-0.613845,7.852271,0.328326,0.268309,-0.01875
2024-01-01 00:00:00.710,0.543522,-0.267879,7.386042,0.142643,0.310481,0.144417
2024-01-01 00:00:00.720,0.332389,-0.457922,7.87249,0.000679,0.277072,0.182787
2024-01-01 00:00:00.730,0.501722,-0.295752,8.01021,0.358225,0.088567,0.218983
2024-01-01 00:00:00.740,-0.023549,-0.588251,8.401952,0.412725,0.169295,0.107505
2024-01-01 00:00:00.750,0.365914,-0.290159,7.867419,0.337871,0.373366,0.015049
2024-01-01 00:00:00.760,0.253837,-0.422664,7.831989,0.098786,0.339881,-0.066227
2024-01-01 00:00:00.770,0.183288,-0.455981,8.025131,-0.013317,0.414553,0.145953
2024-01-01 00:00:00.780,0.205664,-0.500225,8.017691,-0.016652,0.581577,-0.088087
2024-01-01 00:00:00.790,-0.068633,-0.563382,8.793723,-0.104977,0.484121,0.021287
2024-01-01 00:00:00.800,0.118508,-0.394029,8.958746,0.069897,0.562519,0.023447
2024-01-01 00:00:00.810,0.162521,-0.52506,8.767368,0.261063,0.435059,0.028634
2024-01-01 00:00:00.820,0.271653,-0.781034,9.111443,0.03689,0.336799,0.029809
2024-01-01 00:00:00.830,0.006625,-0.681398,8.960854,0.075603,0.434358,0.030714
2024-01-01 00:00:00.840,-0.053783,-0.571251,9.026619,0.189778,0.349996,-0.180876
2024-01-01 00:00:00.850,-0.042614,-0.512626,9.091297,-0.038436,0.636427,0.0062
2024-01-01 00:00:00.860,0.09775,-0.556708,9.241158,0.23735,0.544578,-0.181823
2024-01-01 00:00:00.870,-0.011102,-0.402287,9.117949,0.210164,0.507768,0.044134
2024-01-01 00:00:00.880,-0.152425,-0.779683,9.754147,-0.066507,0.583812,-0.069797
2024-01-01 00:00:00.890,-0.065294,-0.523658,9.85601,-0.14181,0.178022,-0.208816
2024-01-01 00:00:00.900,-0.152885,-0.752748,10.223118,-0.010351,0.470853,-0.112146
2024-01-01 00:00:00.910,-0.085448,-0.435511,10.221455,-0.156952,0.218009,-0.103231
2024-01-01 00:00:00.920,-0.322473,-0.528505,10.307357,-0.274916,0.344891,0.027191
2024-01-01 00:00:00.930,-0.313367,-0.455745,10.267043,-0.00285,0.274652,-0.062568
2024-01-01 00:00:00.940,-0.356093,-0.597163,10.624885,-0.030621,0.353989,-0.060742
2024-01-01 00:00:00.950,-0.51872,-0.325868,10.897133,-0.177395,0.261169,-0.00353
2024-01-01 00:00:00.960,-0.340584,-0.338854,10.514909,-0.366469,0.35158,-0.115154
2024-01-01 00:00:00.970,-0.376675,-0.37689,10.892162,-0.380687,0.07202,-0.056237
2024-01-01 00:00:00.980,-0.438037,-0.44416,10.978641,-0.23779,0.18168,-0.07062
2024-01-01 00:00:00.990,-0.496124,-0.339442,10.770883,-0.327398,0.067223,-0.236624
2024-01-01 00:00:01.000,-0.665726,-0.473022,10.813024,-0.324292,-0.197885,-0.023842
2024-01-01 00:00:01.010,-0.572767,-0.263525,11.006684,-0.175816,-0.16127,-0.26285
2024-01-01 00:00:01.020,-0.588244,-0.145143,10.634305,-0.224658,-0.117791,-0.08293
2024-01-01 00:00:01.030,-0.666567,-0.190458,10.953735,-0.160505,-0.013894,-0.284307
2024-01-01 00:00:01.040,-0.611098,-0.381371,10.571596,-0.457014,-0.137505,-0.120971
2024-01-01 00:00:01.050,-0.562918,-0.224447,10.971771,-0.390557,-0.3767,-0.025734
2024-01-01 00:00:01.060,-0.402874,-0.396183,11.183661,-0.268475,-0.294026,-0.196814
2024-01-01 00:00:01.070,-0.624177,-0.14478,10.260975,-0.314874,-0.072289,-0.20483
2024-01-01 00:00:01.080,-0.628179,-0.131209,10.471978,-0.192734,-0.334517,-0.139475
2024-01-01 00:00:01.090,-0.679984,-0.380913,10.005968,-0.332993,-0.416377,-0.21808
2024-01-01 00:00:01.100,-0.91124,-0.26673,10.285907,-0.167362,-0.342765,-0.049105
2024-01-01 00:00:01.110,-0.692046,-0.131689,9.538116,-0.328835,-0.329987,-0.181443
2024-01-01 00:00:01.120,-0.687431,-0.103916,9.796154,-0.269488,-0.491058,-0.224088
2024-01-01 00:00:01.130,-0.402764,-0.182845,9.27431,-0.437881,-0.385461,-0.242752
2024-01-01 00:00:01.140,-0.723018,0.039188,9.25455,-0.398248,-0.4893,-0.274617
2024-01-01 00:00:01.150,-0.663215,0.052928,8.861719,-0.290344,-0.362141,-0.250049
2024-01-01 00:00:01.160,-0.700917,0.029612,9.13994,-0.204586,-0.421303,-0.227126
2024-01-01 00:00:01.170,-0.832237,-0.007759,8.543921,-0.307918,-0.371699,-0.236724
2024-01-01 00:00:01.180,-0.548009,0.238543,8.716096,-0.401493,-0.503315,-0.24841
2024-01-01 00:00:01.190,-0.585995,0.340767,8.325261,-0.221135,-0.488462,-0.0253
2024-01-01 00:00:01.200,-0.570338,0.113082,8.226106,-0.643187,-0.249431,-0.272482
2024-01-01 00:00:01.210,-0.761412,0.126123,8.147251,-0.543403,-0.341015,-0.174637
2024-01-01 00:00:01.220,-0.469001,0.286398,7.789339,-0.282396,-0.261873,-0.134694
2024-01-01 00:00:01.230,-0.788682,0.211672,7.917343,-0.352856,-0.293857,-0.126866
2024-01-01 00:00:01.240,-0.531285,0.264321,8.149154,-0.271171,-0.107147,-0.176605
2024-01-01 00:00:01.250,-0.318281,0.395369,7.491916,-0.324349,-0.243238,-0.185295
2024-01-01 00:00:01.260,-0.677671,0.102123,7.91828,-0.250805,-0.139821,-0.123535
2024-01-01 00:00:01.270,-0.602744,0.513076,7.958496,-0.403322,0.019016,-0.131475
2024-01-01 00:00:01.280,-0.497194,0.386162,7.358834,-0.222486,0.114608,-0.166189
2024-01-01 00:00:01.290,-0.542394,0.349481,7.198521,-0.156086,-0.039527,-0.262658
2024-01-01 00:00:01.300,-0.639423,0.408365,7.657707,-0.112588,0.307675,-0.166961
2024-01-01 00:00:01.310,-0.415113,0.433511,7.485574,-0.000282,0.158415,-0.212678
2024-01-01 00:00:01.320,-0.519533,0.247897,8.149578,-0.19474,0.042528,-0.165389
2024-01-01 00:00:01.330,-0.302756,0.651277,7.770197,-0.172609,0.256791,-0.100081
2024-01-01 00:00:01.340,-0.436361,0.491661,7.658125,-0.369084,0.208803,-0.064453
2024-01-01 00:00:01.350,-0.105496,0.553207,7.686001,-0.230334,0.34603,0.059154
2024-01-01 00:00:01.360,-0.350054,0.626066,8.37494,-0.169492,0.324425,-0.116154
2024-01-01 00:00:01.370,-0.258513,0.399626,8.103331,0.000401,0.370124,-0.000849
2024-01-01 00:00:01.380,-0.08538,0.587689,8.413001,-0.177893,0.279097,-0.02781
2024-01-01 00:00:01.390,-0.29329,0.505856,8.807281,0.012369,0.529877,0.062084
2024-01-01 00:00:01.400,-0.080434,0.64506,8.621912,-0.061754,0.289948,0.015318
2024-01-01 00:00:01.410,0.08731,0.292011,8.91239,-0.061001,0.308064,-0.100549
2024-01-01 00:00:01.420,-0.224052,0.537564,9.104687,0.012065,0.492301,-0.146745
2024-01-01 00:00:01.430,0.027045,0.477648,9.454575,-0.044145,0.642297,0.026298
2024-01-01 00:00:01.440,0.06173,0.601348,9.5559,-0.034031,0.405975,-0.033549
2024-01-01 00:00:01.450,0.149977,0.604633,9.476859,-0.172484,0.528324,-0.06238
2024-01-01 00:00:01.460,-0.066737,0.461326,9.670013,0.016929,0.566542,-0.078064
2024-01-01 00:00:01.470,-0.051329,0.45806,9.68125,0.003618,0.526684,0.043485
2024-01-01 00:00:01.480,0.195043,0.526791,9.522122,0.013745,0.380452,0.158448
2024-01-01 00:00:01.490,0.193156,0.428297,10.069862,0.140035,0.273502,0.012311
2024-01-01 00:00:01.500,0.212472,0.632035,10.58844,0.183272,0.123978,0.099339
2024-01-01 00:00:01.510,0.248636,0.481082,9.999795,0.146185,0.339709,0.050979
2024-01-01 00:00:01.520,0.149831,0.170232,10.127636,0.251698,0.492992,-0.037026
2024-01-01 00:00:01.530,0.283365,0.467077,10.197679,0.215065,0.195202,0.131783
2024-01-01 00:00:01.540,0.314381,0.379728,10.684766,0.124143,0.390834,-0.0078
2024-01-01 00:00:01.550,0.216832,0.300219,10.697313,0.117345,0.167849,0.088174
2024-01-01 00:00:01.560,0.549382,0.338434,10.620009,0.223533,0.268139,0.065675
2024-01-01 00:00:01.570,0.404847,0.490353,10.497067,0.267702,0.312516,0.170871
2024-01-01 00:00:01.580,0.227061,0.626317,10.808712,0.37918,0.119388,0.021067
2024-01-01 00:00:01.590,0.470336,0.493492,10.445309,0.366684,0.188866,0.143141
2024-01-01 00:00:01.600,0.295594,0.371546,10.914695,0.17077,0.087572,0.050689
2024-01-01 00:00:01.610,0.527458,0.486854,11.130392,0.235192,0.190237,0.082828
2024-01-01 00:00:01.620,0.59191,0.364293,10.624503,0.33931,0.101526,-0.161422
2024-01-01 00:00:01.630,0.373657,0.322707,10.56995,0.397954,0.047344,0.302265
2024-01-01 00:00:01.640,0.606371,0.253664,11.354616,0.393114,0.194623,0.184263
2024-01-01 00:00:01.650,0.558266,0.16757,10.804358,0.283039,0.054113,0.083964
2024-01-01 00:00:01.660,0.624663,0.316093,11.229704,0.150098,-0.141053,0.060318
2024-01-01 00:00:01.670,0.770207,0.366457,10.886576,0.19018,-0.101049,0.115374
2024-01-01 00:00:01.680,0.528992,0.320034,10.854997,0.351824,-0.131901,0.216904
2024-01-01 00:00:01.690,0.483087,0.265407,10.966708,0.368801,-0.144541,0.0125
2024-01-01 00:00:01.700,0.481118,0.185103,10.589141,0.204079,0.118203,0.156633
2024-01-01 00:00:01.710,0.503498,0.35445,10.787969,0.349003,-0.169801,0.313479
2024-01-01 00:00:01.720,0.60487,0.105895,10.596143,0.426674,-0.487026,0.084748
2024-01-01 00:00:01.730,0.666962,0.339209,10.290368,0.219581,-0.334962,0.185295
2024-01-01 00:00:01.740,0.670286,0.107624,10.626526,0.496647,-0.52737,0.358289
2024-01-01 00:00:01.750,0.746549,0.119096,10.391102,0.324575,-0.359132,0.235511
2024-01-01 00:00:01.760,0.658181,0.014591,10.326012,0.526125,-0.580387,0.19768
2024-01-01 00:00:01.770,0.839496,0.111398,9.965128,0.316027,-0.467016,0.230551
2024-01-01 00:00:01.780,0.64087,0.269333,10.562502,0.261164,-0.56348,0.16011
2024-01-01 00:00:01.790,1.005702,0.194696,10.275952,0.333185,-0.351414,0.298051
2024-01-01 00:00:01.800,0.760102,0.230578,10.185652,0.380023,-0.411832,0.163774
2024-01-01 00:00:01.810,0.586982,0.156019,9.752411,0.347577,-0.387711,0.040363
2024-01-01 00:00:01.820,0.565226,-0.059009,9.277579,0.370499,-0.446503,0.166905
2024-01-01 00:00:01.830,0.754589,0.013707,10.076789,0.438186,-0.608831,0.121716
2024-01-01 00:00:01.840,0.6719,-0.060324,9.450205,0.378725,-0.385078,0.177138
2024-01-01 00:00:01.850,0.78548,0.172823,9.154094,0.391952,-0.218818,0.179216
2024-01-01 00:00:01.860,0.756732,-0.150624,9.320872,0.19486,-0.400748,0.295778
2024-01-01 00:00:01.870,0.690406,0.08008,9.384062,0.446516,-0.498916,0.255379
2024-01-01 00:00:01.880,0.595793,0.059873,8.963031,0.387815,-0.614717,0.220321
2024-01-01 00:00:01.890,0.512952,0.152218,9.166515,0.590226,-0.545478,0.19826
2024-01-01 00:00:01.900,0.637544,-0.136463,8.997918,0.282181,-0.37296,0.112756
2024-01-01 00:00:01.910,0.789356,-0.021668,8.341234,0.175341,-0.287069,0.021674
2024-01-01 00:00:01.920,0.70682,0.146949,8.328535,0.463384,-0.370823,0.203661
2024-01-01 00:00:01.930,0.525264,-0.220498,8.627121,0.427156,-0.290263,0.256358
2024-01-01 00:00:01.940,0.688252,-0.349921,7.605025,0.260399,-0.283374,0.182039
2024-01-01 00:00:01.950,0.705528,-0.41043,8.146507,0.193167,-0.287578,0.14558
2024-01-01 00:00:01.960,0.544162,-0.118167,7.732639,0.556044,-0.405573,0.222939
2024-01-01 00:00:01.970,0.658732,-0.448261,7.88397,0.53557,-0.282125,0.176272
2024-01-01 00:00:01.980,0.636469,-0.285253,7.847921,0.06121,-0.379612,0.314712
2024-01-01 00:00:01.990,0.480681,-0.206065,7.759771,0.298063,-0.249033,0.275143
2024-01-01 00:00:02.000,0.648295,-0.253942,7.645554,0.545623,-0.183389,0.249721
2024-01-01 00:00:02.010,0.659364,-0.242359,7.451556,0.281198,0.007593,0.229782
2024-01-01 00:00:02.020,0.707949,-0.283593,8.249287,0.271403,-0.320756,0.061925
2024-01-01 00:00:02.030,0.689576,-0.173242,8.102154,0.287852,-0.074655,0.213931
2024-01-01 00:00:02.040,0.382179,-0.456983,7.312484,0.178349,0.077176,0.186535
2024-01-01 00:00:02.050,0.418605,-0.439483,7.975148,0.098937,0.022894,0.200269
2024-01-01 00:00:02.060,0.575878,-0.466019,7.465401,0.420062,0.064557,0.186287
2024-01-01 00:00:02.070,0.557967,-0.288232,7.592322,0.062455,0.068088,0.178025
2024-01-01 00:00:02.080,0.53969,-0.293841,7.548101,0.302749,0.186339,0.352608
2024-01-01 00:00:02.090,0.921142,-0.361235,7.411992,0.368569,-0.067149,0.124995
2024-01-01 00:00:02.100,0.507634,-0.286298,7.844948,0.076782,-0.070493,0.200372
2024-01-01 00:00:02.110,0.555117,-0.582042,7.66144,0.12843,0.127013,0.081992
2024-01-01 00:00:02.120,0.512489,-0.252377,7.550575,0.373015,-0.100299,0.176968
2024-01-01 00:00:02.130,0.4548,-0.280814,7.391857,0.279166,0.337131,0.182755
2024-01-01 00:00:02.140,0.31692,-0.385864,7.551184,0.128641,0.365335,0.130512
2024-01-01 00:00:02.150,0.42347,-0.270221,7.4288,0.334209,0.195065,0.228509
2024-01-01 00:00:02.160,0.216849,-0.69208,7.9144,0.321692,0.229466,0.017712
2024-01-01 00:00:02.170,0.257949,-0.564804,7.691626,0.195925,0.290695,0.042841
2024-01-01 00:00:02.180,0.204517,-0.598017,8.010671,0.04213,0.329428,0.092065
2024-01-01 00:00:02.190,0.248626,-0.430428,8.512214,0.086844,0.360519,0.138694
2024-01-01 00:00:02.200,0.49228,-0.649553,8.568,0.15695,0.432463,0.075646
2024-01-01 00:00:02.210,-0.034119,-0.438463,8.363924,0.085913,0.363012,0.157133
2024-01-01 00:00:02.220,0.24748,-0.370013,8.458812,0.207034,0.5131,-0.005756
2024-01-01 00:00:02.230,-0.053443,-0.45545,9.063331,-0.103526,0.467471,-0.051223
2024-01-01 00:00:02.240,0.058216,-0.508497,8.839914,-0.113684,0.352938,0.057464
2024-01-01 00:00:02.250,0.220134,-0.664035,8.747093,0.072824,0.595514,0.019385
2024-01-01 00:00:02.260,0.071664,-0.649322,8.594177,-0.022442,0.279497,0.061701
2024-01-01 00:00:02.270,-0.090973,-0.399219,9.172448,-0.053328,0.436238,0.008767
2024-01-01 00:00:02.280,-0.073127,-0.456387,9.405609,-0.204904,0.565733,-0.02357
2024-01-01 00:00:02.290,0.062122,-0.55447,9.196423,-0.008757,0.362538,-0.011546
2024-01-01 00:00:02.300,-0.145507,-0.598267,9.612889,-0.039395,0.480997,-0.014224
2024-01-01 00:00:02.310,-0.070147,-0.787887,9.631562,0.023491,0.49823,-0.051862
2024-01-01 00:00:02.320,-0.128621,-0.668317,9.853226,-0.068354,0.313712,-0.054562
2024-01-01 00:00:02.330,-0.249845,-0.303837,9.446331,-0.114,0.387184,-0.081331
2024-01-01 00:00:02.340,0.048577,-0.678642,10.172124,0.021985,0.351222,0.008906
2024-01-01 00:00:02.350,-0.169039,-0.492443,10.617501,-0.297558,0.273443,-0.054509
2024-01-01 00:00:02.360,-0.523797,-0.382922,10.351419,-0.096079,0.581397,0.100317
2024-01-01 00:00:02.370,-0.293228,-0.641518,10.641413,-0.380882,0.175479,-0.077316
2024-01-01 00:00:02.380,-0.428885,-0.454389,10.541769,-0.300301,0.346272,-0.143917
2024-01-01 00:00:02.390,-0.27999,-0.34819,10.905567,-0.363966,0.134444,0.104431
2024-01-01 00:00:02.400,-0.50904,-0.442033,10.827225,-0.142702,0.00489,-0.085178
2024-01-01 00:00:02.410,-0.458109,-0.080776,10.692849,-0.261758,0.099695,-0.047745
2024-01-01 00:00:02.420,-0.412803,-0.605383,11.286946,-0.272135,0.116263,-0.087889
2024-01-01 00:00:02.430,-0.397139,-0.257045,11.191718,-0.419111,0.099384,-0.09331
2024-01-01 00:00:02.440,-0.671179,-0.382609,10.793395,-0.337188,0.12708,-0.10776
2024-01-01 00:00:02.450,-0.591803,-0.245928,11.033844,-0.406852,0.244453,-0.245785
2024-01-01 00:00:02.460,-0.631508,-0.261264,10.988591,-0.282279,-0.126183,-0.134745
2024-01-01 00:00:02.470,-0.674028,-0.376911,10.940387,-0.45929,-0.281195,-0.276168
2024-01-01 00:00:02.480,-0.403087,-0.235291,10.263452,-0.19182,-0.190222,-0.189647
2024-01-01 00:00:02.490,-0.583797,-0.458762,10.828624,-0.562438,-0.316499,-0.238734
2024-01-01 00:00:02.500,-0.799243,-0.135755,10.308588,-0.467032,-0.209985,-0.156527
2024-01-01 00:00:02.510,-0.551375,-0.144067,10.221201,-0.176747,-0.509428,-0.162275
2024-01-01 00:00:02.520,-0.418442,-0.074364,10.817076,-0.436846,-0.097959,-0.153823
2024-01-01 00:00:02.530,-0.558751,0.00527,10.069172,-0.54787,-0.303206,-0.172058
2024-01-01 00:00:02.540,-0.872454,-0.047923,9.724353,-0.368071,-0.626878,-0.245726
2024-01-01 00:00:02.550,-0.753633,-0.044321,9.090062,-0.45449,-0.523613,-0.219602
2024-01-01 00:00:02.560,-0.546788,-0.137687,9.804668,-0.499629,-0.349032,-0.12603
2024-01-01 00:00:02.570,-0.784917,-0.087195,8.934382,-0.531503,-0.30883,-0.11457
2024-01-01 00:00:02.580,-0.645801,0.170915,8.833154,-0.067258,-0.600251,-0.291474
2024-01-01 00:00:02.590,-0.603052,0.231016,8.816631,-0.427905,-0.354201,-0.321334
2024-01-01 00:00:02.600,-0.802084,0.060054,9.073386,-0.625841,-0.660311,-0.255537
2024-01-01 00:00:02.610,-0.69075,0.123851,8.738941,-0.211388,-0.419061,-0.1117
2024-01-01 00:00:02.620,-1.063247,0.039123,8.341154,-0.311983,-0.25167,-0.095465
2024-01-01 00:00:02.630,-0.785871,0.317307,8.303297,-0.470801,-0.423418,-0.26339
2024-01-01 00:00:02.640,-0.679897,0.284791,7.934233,-0.483168,-0.50587,-0.161012
2024-01-01 00:00:02.650,-0.784003,0.465633,7.991557,-0.281623,-0.271367,-0.034465
2024-01-01 00:00:02.660,-0.421142,0.15433,7.863045,-0.38222,-0.321862,-0.14307
2024-01-01 00:00:02.670,-0.769545,0.240624,7.992076,-0.57279,-0.131118,-0.057116
2024-01-01 00:00:02.680,-0.629822,0.339151,7.915102,-0.115255,-0.267776,-0.084964
2024-01-01 00:00:02.690,-0.538671,0.413406,7.739402,-0.368856,-0.207173,-0.231204
2024-01-01 00:00:02.700,-0.357075,0.333382,7.487793,-0.123404,-0.308513,-0.166635
2024-01-01 00:00:02.710,-0.676396,0.276855,7.746631,-0.13464,0.003663,-0.141246
2024-01-01 00:00:02.720,-0.337053,0.508574,7.541511,-0.392483,0.013424,-0.12785
2024-01-01 00:00:02.730,-0.446504,0.509318,7.317845,-0.131864,-0.060805,-0.054617
2024-01-01 00:00:02.740,-0.535258,0.331527,7.531526,-0.316731,0.153137,-0.086584
2024-01-01 00:00:02.750,-0.330508,0.621496,7.717176,-0.444553,0.299639,-0.34517
2024-01-01 00:00:02.760,-0.329389,0.615242,8.006196,-0.252824,0.1949,-0.205963
2024-01-01 00:00:02.770,-0.39155,0.505474,7.833263,-0.134868,0.294658,-0.266283
2024-01-01 00:00:02.780,-0.276429,0.51197,7.694036,-0.218274,0.333813,-0.067344
2024-01-01 00:00:02.790,-0.295463,0.580447,8.142986,-0.17926,0.191395,-0.051968
2024-01-01 00:00:02.800,-0.19927,0.420542,8.303301,0.015575,0.613544,-0.038168
2024-01-01 00:00:02.810,-0.096459,0.535953,8.479438,-0.087743,0.336658,-0.126976
2024-01-01 00:00:02.820,0.051916,0.280856,8.830983,-0.180285,0.493549,0.014387
2024-01-01 00:00:02.830,-0.249016,0.649479,9.031748,0.026828,0.523762,0.028593
2024-01-01 00:00:02.840,0.193717,0.360442,8.810304,-0.011848,0.426132,-0.118197
2024-01-01 00:00:02.850,-0.258078,0.730092,8.9903,-0.316208,0.521773,-0.124091
2024-01-01 00:00:02.860,-0.008437,0.510332,9.047433,0.056989,0.479323,0.002783
2024-01-01 00:00:02.870,0.106025,0.523895,9.606557,0.067263,0.277578,0.153465
2024-01-01 00:00:02.880,0.094748,0.472578,9.917504,0.037288,0.403286,0.153416
2024-01-01 00:00:02.890,0.011826,0.511215,9.598388,0.156461,0.362735,0.069801
2024-01-01 00:00:02.900,0.086979,0.713144,9.736418,-0.016714,0.37157,-0.026413
2024-01-01 00:00:02.910,0.078047,0.240794,10.280204,0.118784,0.258941,0.11015
2024-01-01 00:00:02.920,0.091553,0.688253,10.153118,-0.095306,0.536804,0.010171
2024-01-01 00:00:02.930,0.28908,0.570546,10.244887,0.155781,0.577923,-0.007936
2024-01-01 00:00:02.940,0.254569,0.379395,9.94249,0.355354,0.485022,-0.111024
2024-01-01 00:00:02.950,0.152893,0.38875,10.509025,0.015499,0.500128,0.075631
2024-01-01 00:00:02.960,0.367992,0.711808,10.200381,0.057418,0.284442,0.023908
2024-01-01 00:00:02.970,0.320564,0.389348,10.23618,0.076906,0.225831,0.088768
2024-01-01 00:00:02.980,0.404498,0.355898,10.513242,0.191003,0.18351,-0.096247
2024-01-01 00:00:02.990,0.405365,0.621605,10.526535,0.060898,0.327498,0.107817
2024-01-01 00:00:03.000,0.252741,0.515929,10.683037,0.251818,0.249384,-0.093855
2024-01-01 00:00:03.010,0.306936,0.352288,10.435699,0.315425,0.183601,0.193937
2024-01-01 00:00:03.020,0.485268,0.479745,11.084901,0.290175,0.317981,0.154778
2024-01-01 00:00:03.030,0.48974,0.318961,11.167851,0.025788,0.179977,0.096706
2024-01-01 00:00:03.040,0.43433,0.561858,10.431087,0.369042,-0.001139,0.169829
2024-01-01 00:00:03.050,0.470674,0.544253,11.185621,0.373395,-0.014629,0.05221
2024-01-01 00:00:03.060,0.629057,0.467299,10.752422,0.371469,0.116139,0.141715
2024-01-01 00:00:03.070,0.423251,0.432885,11.174236,0.327164,0.126344,0.204793
2024-01-01 00:00:03.080,0.57773,0.586332,10.938682,0.319039,0.034566,-0.101235
2024-01-01 00:00:03.090,0.504965,0.359951,10.949675,0.426303,0.163189,0.11543
2024-01-01 00:00:03.100,0.519546,0.202679,10.873851,0.542631,0.099308,0.154093
2024-01-01 00:00:03.110,0.693226,0.382494,11.191879,0.20642,-0.075903,0.144689
2024-01-01 00:00:03.120,0.675374,0.562494,10.538917,0.458703,-0.260699,0.281232
2024-01-01 00:00:03.130,0.688121,0.173588,10.952202,0.327082,-0.34765,0.078802
2024-01-01 00:00:03.140,0.76054,0.234778,11.018724,0.329515,-0.266295,0.122845
2024-01-01 00:00:03.150,0.618974,0.310548,10.857654,0.167875,-0.1576,0.02286
2024-01-01 00:00:03.160,0.71003,0.236176,11.187296,0.324794,-0.055632,0.300307
2024-01-01 00:00:03.170,0.601861,0.106513,10.394203,0.245524,-0.250103,0.162895
2024-01-01 00:00:03.180,0.688032,0.340455,10.679277,0.31527,-0.183703,0.150394
2024-01-01 00:00:03.190,0.642682,0.465403,10.320598,0.244388,-0.375399,0.183887
2024-01-01 00:00:03.200,0.67822,0.191448,10.556799,0.327034,-0.291383,0.24135
2024-01-01 00:00:03.210,0.745385,0.040113,10.142539,0.33639,-0.285498,0.220351
2024-01-01 00:00:03.220,0.582259,-0.056785,9.938753,0.400437,-0.637971,0.406244
2024-01-01 00:00:03.230,0.937097,0.140363,10.249331,0.198236,-0.464,0.232318
2024-01-01 00:00:03.240,0.569932,0.22204,9.683451,0.221197,-0.312164,0.16011
2024-01-01 00:00:03.250,0.548666,0.126643,9.333753,0.440212,-0.402642,0.153483
2024-01-01 00:00:03.260,0.836124,0.049289,9.43602,0.302679,-0.586269,0.167765
2024-01-01 00:00:03.270,0.793994,-0.041247,9.596648,0.528369,-0.739032,0.079566
2024-01-01 00:00:03.280,0.774794,-0.121746,9.665579,0.426975,-0.493636,0.20316
2024-01-01 00:00:03.290,0.775265,0.08932,9.220722,0.472734,-0.45824,0.262639
2024-01-01 00:00:03.300,0.697418,0.078653,9.39822,0.568647,-0.553212,0.150613
2024-01-01 00:00:03.310,0.589301,-0.236595,8.605886,0.361104,-0.425059,0.134544
2024-01-01 00:00:03.320,0.703215,0.119634,8.713063,0.327701,-0.374174,0.319595
2024-01-01 00:00:03.330,0.609073,-0.022202,8.632529,0.49908,-0.344831,0.083119
2024-01-01 00:00:03.340,0.802634,0.05704,8.559812,0.452924,-0.696111,0.030466
2024-01-01 00:00:03.350,0.662337,-0.291639,8.496863,0.366083,-0.556981,0.102049
2024-01-01 00:00:03.360,0.574375,-0.313979,8.540169,0.551795,-0.419541,0.069175
2024-01-01 00:00:03.370,0.627415,-0.187251,8.152639,0.355091,-0.295987,0.221178
2024-01-01 00:00:03.380,0.707183,-0.128108,8.200352,0.379722,-0.285641,0.159038
2024-01-01 00:00:03.390,0.580751,0.008308,8.061949,0.37306,-0.265576,0.167682
2024-01-01 00:00:03.400,0.539627,-0.141062,7.755772,0.252588,-0.344329,0.274604
2024-01-01 00:00:03.410,0.656573,-0.273145,7.879682,0.367785,-0.312151,0.12393
2024-01-01 00:00:03.420,0.64492,-0.385091,7.800304,0.519339,-0.333284,0.237871
2024-01-01 00:00:03.430,0.542058,-0.131878,7.730722,0.397905,-0.125429,0.29316
2024-01-01 00:00:03.440,0.532923,-0.412419,7.723702,0.340555,-0.298629,0.131961
2024-01-01 00:00:03.450,0.603057,-0.118016,7.686751,0.30928,-0.055713,0.223308
2024-01-01 00:00:03.460,0.386432,-0.363914,7.520386,0.35982,-0.101474,0.140712
2024-01-01 00:00:03.470,0.375545,-0.154831,7.916035,0.401081,-0.099841,0.229482
2024-01-01 00:00:03.480,0.441733,-0.279677,7.283815,0.374792,-0.140754,0.025123
2024-01-01 00:00:03.490,0.485129,-0.392551,7.383322,0.252029,-0.191793,0.014286
2024-01-01 00:00:03.500,0.530162,-0.452896,8.255053,0.320604,-0.073869,0.109514
2024-01-01 00:00:03.510,0.651343,-0.44541,7.306198,0.328622,-0.002795,0.0644
2024-01-01 00:00:03.520,0.55803,-0.366491,7.241997,0.1392,-0.214718,0.088695
2024-01-01 00:00:03.530,0.416116,-0.421458,7.787822,0.268936,0.078267,0.106812
2024-01-01 00:00:03.540,0.41264,-0.514222,7.117589,-0.022258,0.24471,0.17615
2024-01-01 00:00:03.550,0.273674,-0.474492,7.619441,0.283034,0.232971,0.079952
2024-01-01 00:00:03.560,0.370282,-0.456229,8.264607,0.2921,0.135592,0.040521
2024-01-01 00:00:03.570,0.31589,-0.731522,7.400041,0.290008,0.229952,0.07203
2024-01-01 00:00:03.580,0.366809,-0.430869,7.356829,0.140071,0.185557,0.032206
2024-01-01 00:00:03.590,0.205929,-0.612539,7.551136,0.211484,0.296769,0.012479
2024-01-01 00:00:03.600,0.344221,-0.641829,8.231302,0.33196,0.488853,-0.048499
2024-01-01 00:00:03.610,0.442152,-0.713691,8.375423,0.317209,0.443748,0.079336
2024-01-01 00:00:03.620,0.221149,-0.733571,8.059864,0.130328,0.411751,0.021418
2024-01-01 00:00:03.630,0.258068,-0.687354,8.458359,0.13664,0.30996,0.137263
2024-01-01 00:00:03.640,0.26806,-0.615475,8.73989,0.239162,0.476965,-0.062865
2024-01-01 00:00:03.650,0.112227,-0.30098,8.948597,-0.088454,0.200334,0.002454
2024-01-01 00:00:03.660,0.162181,-0.602736,8.553686,0.038539,0.386099,0.183687
2024-01-01 00:00:03.670,0.111534,-0.521834,8.156876,0.223139,0.497812,-0.043734
2024-01-01 00:00:03.680,0.09633,-0.49791,8.646835,0.165372,0.525702,0.005251
2024-01-01 00:00:03.690,-0.03368,-0.53231,8.867358,0.078072,0.523975,-0.080387
2024-01-01 00:00:03.700,0.036415,-0.558664,9.032864,-0.161572,0.483322,-0.09831
2024-01-01 00:00:03.710,0.067581,-0.693401,9.175047,-0.00152,0.426401,0.12602
2024-01-01 00:00:03.720,0.147379,-0.375487,9.669598,-0.08608,0.513242,0.006038
2024-01-01 00:00:03.730,0.049945,-0.330748,9.893761,0.002486,0.327856,-0.007925
2024-01-01 00:00:03.740,0.155002,-0.745888,9.713707,-0.156196,0.329009,-0.165242
2024-01-01 00:00:03.750,-0.233361,-0.661565,10.206715,-0.203818,0.420747,-0.011666
2024-01-01 00:00:03.760,-0.074074,-0.565343,10.188855,-0.349928,0.412096,0.041522
2024-01-01 00:00:03.770,-0.193683,-0.638986,10.272766,0.023368,0.145482,0.030334
2024-01-01 00:00:03.780,0.010812,-0.452419,10.628431,-0.191952,0.388011,-0.018523
2024-01-01 00:00:03.790,-0.384478,-0.588869,10.551212,-0.145418,0.390929,-0.172497
2024-01-01 00:00:03.800,-0.422897,-0.228496,11.163569,-0.184343,0.250131,-0.066987
2024-01-01 00:00:03.810,-0.427732,-0.330786,10.388692,-0.331409,0.502411,-0.048252
2024-01-01 00:00:03.820,-0.643271,-0.432059,10.700693,-0.373033,0.090963,-0.254528
2024-01-01 00:00:03.830,-0.482918,-0.316863,10.860077,-0.360539,0.082935,-0.209653
2024-01-01 00:00:03.840,-0.541078,-0.288596,11.044071,-0.343913,0.030682,-0.057514
2024-01-01 00:00:03.850,-0.460729,-0.468906,11.273463,-0.229594,0.019828,-0.06671
2024-01-01 00:00:03.860,-0.465112,-0.477894,10.952136,-0.384699,-0.059946,-0.268493
2024-01-01 00:00:03.870,-0.306798,-0.348137,10.583915,-0.094386,-0.238538,-0.088381
2024-01-01 00:00:03.880,-0.442095,-0.230603,11.111039,-0.19454,-0.183685,-0.151275
2024-01-01 00:00:03.890,-0.6479,-0.292787,11.030263,-0.233666,-0.176766,-0.102854
2024-01-01 00:00:03.900,-0.707258,-0.473254,10.278056,-0.356901,-0.062579,-0.222032
2024-01-01 00:00:03.910,-0.559381,-0.354034,10.666396,-0.171664,0.011843,-0.125074
2024-01-01 00:00:03.920,-0.793932,-0.239473,10.156628,-0.389306,-0.131537,-0.114066
2024-01-01 00:00:03.930,-0.430901,-0.21188,10.259176,-0.375566,-0.420681,-0.214014
2024-01-01 00:00:03.940,-0.522347,0.062313,10.056727,-0.358963,-0.443014,-0.18826
2024-01-01 00:00:03.950,-0.731378,-0.311774,10.329479,-0.301539,-0.406172,-0.244761
2024-01-01 00:00:03.960,-0.889808,-0.055408,9.990624,-0.314561,-0.195764,-0.063364
2024-01-01 00:00:03.970,-0.528854,0.092342,9.465794,-0.452054,-0.447666,-0.207141
2024-01-01 00:00:03.980,-0.710059,0.21621,9.826612,-0.461853,-0.599849,-0.272709
2024-01-01 00:00:03.990,-0.550667,-0.074733,9.063359,-0.322757,-0.508098,-0.257039
2024-01-01 00:00:04.000,-0.891312,0.063005,9.317598,-0.314161,-0.359105,-0.189853
2024-01-01 00:00:04.010,-0.770566,0.10263,8.845127,-0.446425,-0.363715,-0.139345
2024-01-01 00:00:04.020,-0.694558,0.087839,8.773326,-0.587713,-0.461694,-0.305491
2024-01-01 00:00:04.030,-0.683995,0.082447,8.811705,-0.418954,-0.341529,-0.049225
2024-01-01 00:00:04.040,-0.736,0.176268,8.643833,-0.314887,-0.67707,-0.170161
2024-01-01 00:00:04.050,-0.597547,-0.150651,8.68457,-0.167515,-0.367695,-0.154766
2024-01-01 00:00:04.060,-0.788668,0.263871,8.177615,-0.521214,-0.248143,-0.196505
2024-01-01 00:00:04.070,-0.663906,0.225418,8.135476,-0.4208,-0.418392,-0.183265
2024-01-01 00:00:04.080,-0.616697,0.211197,7.82463,-0.407375,-0.381983,-0.192186
2024-01-01 00:00:04.090,-0.551802,0.510416,7.870789,-0.187895,-0.465366,-0.093872
2024-01-01 00:00:04.100,-0.508688,0.209899,7.84373,-0.343669,-0.007458,-0.170372
2024-01-01 00:00:04.110,-0.70779,0.26774,7.636294,-0.436213,-0.239121,-0.102303
2024-01-01 00:00:04.120,-0.733946,0.579358,7.156273,-0.247158,-0.076389,-0.191808
2024-01-01 00:00:04.130,-0.371887,0.263757,7.656394,-0.348676,0.015818,-0.134408
2024-01-01 00:00:04.140,-0.459099,0.319725,7.651364,-0.432056,0.174142,-0.206878
2024-01-01 00:00:04.150,-0.561055,0.389063,7.397423,-0.376411,0.02366,-0.037317
2024-01-01 00:00:04.160,-0.255932,0.527332,7.274068,-0.044527,0.026322,-0.193006
2024-01-01 00:00:04.170,-0.397687,0.469828,8.011954,-0.189077,0.159646,-0.143589
2024-01-01 00:00:04.180,-0.238306,0.306879,7.833208,-0.20411,0.339114,-0.133717
2024-01-01 00:00:04.190,-0.338824,0.41384,7.739169,-0.228231,0.208514,-0.127438
2024-01-01 00:00:04.200,-0.065692,0.419079,7.615962,-0.143789,0.155494,-0.031624
2024-01-01 00:00:04.210,-0.06745,0.495469,7.814983,-0.125281,0.123066,-0.104787
2024-01-01 00:00:04.220,-0.272235,0.567084,8.481281,-0.103431,0.195558,0.042268
2024-01-01 00:00:04.230,-0.089306,0.575855,8.338594,-0.103873,0.475863,-0.124305
2024-01-01 00:00:04.240,-0.091363,0.320646,8.326629,0.007794,0.359185,-0.034681
2024-01-01 00:00:04.250,0.033026,0.667924,8.761412,-0.072205,0.345476,-0.099551
2024-01-01 00:00:04.260,-0.209007,0.57541,8.60767,-0.170619,0.348124,0.007045
2024-01-01 00:00:04.270,0.027387,0.714447,9.369184,-0.104885,0.454662,-0.016973
2024-01-01 00:00:04.280,0.110514,0.603151,9.518092,-0.246909,0.420765,-0.017118
2024-01-01 00:00:04.290,-0.196384,0.682038,9.214569,0.251598,0.416829,0.099268
2024-01-01 00:00:04.300,-0.101683,0.605073,9.29829,0.126564,0.608935,-0.040831
2024-01-01 00:00:04.310,-0.17881,0.709105,8.92412,-0.061953,0.626586,0.065749
2024-01-01 00:00:04.320,0.05907,0.607962,9.329741,0.018406,0.241454,-0.035403
2024-01-01 00:00:04.330,0.202882,0.530543,9.484385,-0.009696,0.464264,0.04238
2024-01-01 00:00:04.340,0.322281,0.811257,9.969161,0.266247,0.319742,-0.055075
2024-01-01 00:00:04.350,0.175919,0.640798,9.966287,-0.074941,0.368968,-0.005279
2024-01-01 00:00:04.360,0.387268,0.597793,9.819758,0.123356,0.419521,0.048238
2024-01-01 00:00:04.370,0.050769,0.369907,10.189232,0.110623,0.338476,0.206995
2024-01-01 00:00:04.380,0.036233,0.361883,10.483916,0.236728,0.371295,0.076818
2024-01-01 00:00:04.390,0.257907,0.544328,10.581701,0.138703,0.402188,0.207966
2024-01-01 00:00:04.400,0.334238,0.518702,10.060589,-0.046328,0.332844,0.099955
2024-01-01 00:00:04.410,0.307418,0.418909,10.582351,0.147775,0.194339,0.057988
2024-01-01 00:00:04.420,0.08602,0.500224,10.340212,0.074262,0.169458,0.218609
2024-01-01 00:00:04.430,0.345742,0.663993,10.975445,0.213227,0.043884,0.1368
2024-01-01 00:00:04.440,0.221744,0.546223,11.002007,0.388261,0.0847,0.056662
2024-01-01 00:00:04.450,0.479977,0.314647,10.629112,0.019621,0.392135,0.151822
2024-01-01 00:00:04.460,0.464406,0.426375,10.701192,0.14421,0.03032,0.096711
2024-01-01 00:00:04.470,0.327862,0.330756,10.807694,0.185476,-0.049845,-0.033223
2024-01-01 00:00:04.480,0.398625,0.367849,10.381183,0.217226,0.09925,0.206389
2024-01-01 00:00:04.490,0.352206,0.351204,11.040691,0.362707,0.014786,0.224541
2024-01-01 00:00:04.500,0.490168,0.329447,10.891686,0.263569,-0.028421,0.289232
2024-01-01 00:00:04.510,0.630016,0.221554,11.196503,0.34441,0.131183,0.181028
2024-01-01 00:00:04.520,0.414128,0.341757,10.664314,0.229144,-0.004756,0.132221
2024-01-01 00:00:04.530,0.609202,0.274229,10.76007,0.341143,-0.16662,0.223575
2024-01-01 00:00:04.540,0.500648,-0.026065,10.505259,0.415781,-0.185774,0.229208
2024-01-01 00:00:04.550,0.483939,0.555355,10.589141,0.243029,-0.226238,0.296515
2024-01-01 00:00:04.560,0.580267,0.422765,10.494547,0.432683,-0.091158,0.16589
2024-01-01 00:00:04.570,0.482111,0.229678,10.980643,0.352765,-0.26225,0.159994
2024-01-01 00:00:04.580,0.552316,0.259444,10.49078,0.479029,-0.468385,0.119543
2024-01-01 00:00:04.590,0.486592,0.098594,10.622533,0.336022,-0.285578,0.223093
2024-01-01 00:00:04.600,0.876839,0.424364,10.415286,0.412076,-0.489293,0.059303
2024-01-01 00:00:04.610,0.655178,0.42994,10.105377,0.367096,-0.066173,0.248072
2024-01-01 00:00:04.620,0.575978,0.202184,10.286685,0.365566,-0.465828,0.235582
2024-01-01 00:00:04.630,0.693734,0.287074,10.378809,0.412818,-0.389158,0.237679
2024-01-01 00:00:04.640,0.661791,0.165934,9.822158,0.450286,-0.356549,0.203992
2024-01-01 00:00:04.650,0.65506,-0.035053,10.216797,0.239525,-0.437888,0.317374
2024-01-01 00:00:04.660,0.760667,0.05622,9.688453,0.564588,-0.451601,0.266036
2024-01-01 00:00:04.670,0.782334,0.101614,9.663058,0.171945,-0.377487,0.148986
2024-01-01 00:00:04.680,0.631311,0.011265,9.796581,0.314949,-0.253968,0.151429
2024-01-01 00:00:04.690,0.628476,0.019513,9.375985,0.387301,-0.351671,0.128933
2024-01-01 00:00:04.700,0.666233,0.014661,9.427658,0.449048,-0.270624,0.243885
2024-01-01 00:00:04.710,0.423735,-0.004232,9.215161,0.589121,-0.575505,0.119979
2024-01-01 00:00:04.720,0.517927,-0.008419,9.201563,0.176862,-0.411274,0.2866
2024-01-01 00:00:04.730,0.86262,-0.162106,8.449911,0.338274,-0.42776,0.305436
2024-01-01 00:00:04.740,0.893896,-0.140973,8.464706,0.14278,-0.398892,0.128679
2024-01-01 00:00:04.750,0.663585,-0.229104,8.954964,0.400063,-0.268137,0.18329
2024-01-01 00:00:04.760,0.758693,0.022462,8.941581,0.426606,-0.449714,0.198332
2024-01-01 00:00:04.770,0.721967,-0.367348,8.339083,0.582105,-0.459538,0.266323
2024-01-01 00:00:04.780,1.048273,0.004119,8.393842,0.402366,-0.332251,0.322692
2024-01-01 00:00:04.790,0.806434,0.01259,8.421001,0.509331,-0.593034,0.057185
2024-01-01 00:00:04.800,0.649109,-0.209287,8.418003,0.449751,-0.389352,0.164391
2024-01-01 00:00:04.810,0.541276,-0.504422,7.640613,0.322593,-0.356373,0.16613
2024-01-01 00:00:04.820,0.453767,-0.254166,7.834835,0.200376,-0.428224,0.072672
2024-01-01 00:00:04.830,0.660686,-0.23699,7.888483,0.396584,-0.166738,0.142983
2024-01-01 00:00:04.840,0.534384,-0.368731,8.06962,0.178174,-0.395279,0.212835
2024-01-01 00:00:04.850,0.442511,-0.327124,8.447992,0.505814,-0.256901,0.1529
2024-01-01 00:00:04.860,0.522804,-0.099156,7.703654,0.323634,-0.176911,0.047971
2024-01-01 00:00:04.870,0.457011,-0.22009,7.35424,0.478733,-0.020029,0.397583
2024-01-01 00:00:04.880,0.774869,-0.427528,7.760233,0.269467,-0.153082,0.18484
2024-01-01 00:00:04.890,0.663054,-0.524566,7.952198,0.350695,-0.008034,0.168152
2024-01-01 00:00:04.900,0.540398,-0.387922,7.620039,0.334467,-0.00421,0.066839
2024-01-01 00:00:04.910,0.702317,-0.389652,7.346419,0.294437,-0.040902,0.170778
2024-01-01 00:00:04.920,0.516672,-0.319361,7.801692,0.238017,-0.153594,0.131831
2024-01-01 00:00:04.930,0.386015,-0.457502,7.726318,0.326734,-0.162016,-0.011262
2024-01-01 00:00:04.940,0.653469,-0.345714,7.311283,0.157828,0.055847,0.048863
2024-01-01 00:00:04.950,0.516054,-0.188158,7.679627,0.112802,0.010644,0.192561
2024-01-01 00:00:04.960,0.307001,-0.335234,7.85906,0.395694,0.218373,0.278799
2024-01-01 00:00:04.970,0.388134,-0.451001,7.939559,0.322103,0.229278,0.146795
2024-01-01 00:00:04.980,0.284853,-0.478745,7.670502,0.230723,0.148583,0.199654
2024-01-01 00:00:04.990,0.20242,-0.510492,7.649076,0.410306,0.061855,0.092784
2024-01-01 00:00:05.000,0.45743,-0.336309,8.105073,0.165748,0.291034,0.092016
2024-01-01 00:00:05.010,0.552887,-0.562915,7.563229,0.343728,0.135322,0.17978
2024-01-01 00:00:05.020,0.132961,-0.491208,8.050423,0.192949,0.192807,0.218962
2024-01-01 00:00:05.030,0.344974,-0.49882,7.68037,0.035554,0.191114,0.18335
2024-01-01 00:00:05.040,0.175596,-0.572829,8.377968,0.366721,0.315186,-0.012831
2024-01-01 00:00:05.050,0.171133,-0.684272,8.142033,0.250078,0.493608,0.06024
2024-01-01 00:00:05.060,0.134107,-0.487082,8.624272,0.102731,0.37206,0.080829
2024-01-01 00:00:05.070,0.076845,-0.538716,8.535682,0.190417,0.336957,0.030804
2024-01-01 00:00:05.080,0.161434,-0.476209,8.21728,0.040476,0.22245,0.075489
2024-01-01 00:00:05.090,0.030776,-0.604391,8.993459,0.174063,0.48498,0.102929
2024-01-01 00:00:05.100,0.137648,-0.397256,9.142677,-0.226819,0.336027,0.11028
2024-01-01 00:00:05.110,0.073726,-0.651631,9.095716,-0.076802,0.452419,0.157657
2024-01-01 00:00:05.120,0.025535,-0.342903,8.807095,0.148488,0.402096,-0.010867
2024-01-01 00:00:05.130,-0.080318,-0.759257,9.044746,-0.013621,0.54908,-0.100954
2024-01-01 00:00:05.140,-0.066279,-0.497823,9.28211,0.026581,0.431116,0.029497
2024-01-01 00:00:05.150,0.056563,-0.492296,9.249428,-0.181091,0.440795,0.140967
2024-01-01 00:00:05.160,-0.012355,-0.642512,10.033168,0.180336,0.498645,-0.058862
2024-01-01 00:00:05.170,-0.227933,-0.492161,9.826658,0.079648,0.680354,0.02334
2024-01-01 00:00:05.180,-0.136534,-0.383947,9.288822,-0.108913,0.516135,0.013244
2024-01-01 00:00:05.190,-0.095665,-0.796283,10.215064,-0.154753,0.375938,-0.037779
2024-01-01 00:00:05.200,-0.422977,-0.461108,10.198234,-0.003675,0.359333,-0.06306
2024-01-01 00:00:05.210,-0.193588,-0.810225,10.409198,0.090016,0.264005,-0.147815
2024-01-01 00:00:05.220,-0.373667,-0.614963,10.464315,-0.053636,0.177076,-0.266576
2024-01-01 00:00:05.230,-0.260151,-0.290124,10.871103,0.072832,0.185315,-0.18284
2024-01-01 00:00:05.240,-0.453691,-0.540511,11.045102,-0.317597,0.116516,-0.134682
2024-01-01 00:00:05.250,-0.611069,-0.595212,10.913589,-0.323745,0.242578,-0.024916
2024-01-01 00:00:05.260,-0.620977,-0.460374,10.816514,-0.385914,-0.011354,-0.129871
2024-01-01 00:00:05.270,-0.449805,-0.169428,10.929686,-0.207317,0.228774,-0.171686
2024-01-01 00:00:05.280,-0.452933,-0.617072,10.963294,-0.255556,0.109802,-0.209593
2024-01-01 00:00:05.290,-0.619679,-0.501918,10.755633,-0.310326,-0.027451,-0.093501
2024-01-01 00:00:05.300,-0.460045,-0.173424,11.078318,-0.209561,-0.07898,-0.044667
2024-01-01 00:00:05.310,-0.759951,-0.106479,11.005715,-0.172445,-0.194044,-0.075088
2024-01-01 00:00:05.320,-0.590696,-0.317107,11.213224,-0.516089,-0.141375,-0.118013
2024-01-01 00:00:05.330,-0.748523,-0.427751,11.060408,-0.416323,-0.087728,-0.290392
2024-01-01 00:00:05.340,-0.700033,-0.00109,10.475642,-0.256904,-0.344554,-0.205795
2024-01-01 00:00:05.350,-0.632856,-0.03402,10.735861,-0.421011,-0.482914,-0.026657
2024-01-01 00:00:05.360,-0.756594,-0.11596,10.161415,-0.469124,-0.24964,-0.096914
2024-01-01 00:00:05.370,-0.712315,-0.266406,10.427735,-0.258443,-0.326184,-0.313334
2024-01-01 00:00:05.380,-0.556224,-0.145775,9.967187,-0.541585,-0.526201,-0.19787
2024-01-01 00:00:05.390,-0.754969,-0.129684,9.673008,-0.428042,-0.501718,-0.166878
2024-01-01 00:00:05.400,-0.592149,-0.040955,9.823229,-0.356238,-0.533737,-0.25881
2024-01-01 00:00:05.410,-0.832593,0.123491,8.903012,-0.46716,-0.529317,-0.383887
2024-01-01 00:00:05.420,-0.63594,0.085081,8.948578,-0.305745,-0.487598,-0.191956
2024-01-01 00:00:05.430,-0.526901,-0.119491,9.155092,-0.468202,-0.4817,-0.262989
2024-01-01 00:00:05.440,-0.994743,0.205187,9.033949,-0.229906,-0.523333,-0.262178
2024-01-01 00:00:05.450,-0.789919,0.107675,8.737864,-0.411827,-0.52636,-0.226743
2024-01-01 00:00:05.460,-0.619089,0.182427,8.257384,-0.312783,-0.447714,-0.207362
2024-01-01 00:00:05.470,-0.704668,0.305542,8.277166,-0.299221,-0.379938,-0.195099
2024-01-01 00:00:05.480,-0.625672,0.025354,8.418243,-0.458282,-0.412982,-0.262208
2024-01-01 00:00:05.490,-0.730569,0.18315,8.316045,-0.62247,-0.20642,-0.205643
2024-01-01 00:00:05.500,-0.633591,0.151814,8.029868,-0.324699,-0.250747,-0.324589
2024-01-01 00:00:05.510,-0.646607,0.054933,8.201276,-0.35014,-0.465109,-0.154524
2024-01-01 00:00:05.520,-0.469837,0.311433,7.905852,-0.281856,-0.170536,-0.402779
2024-01-01 00:00:05.530,-0.559641,0.597151,7.53164,-0.364424,-0.117074,-0.19178
2024-01-01 00:00:05.540,-0.528075,0.099997,7.579011,-0.376558,-0.195969,-0.088919
2024-01-01 00:00:05.550,-0.59471,0.341005,7.248522,-0.070574,-0.275549,-0.240543
2024-01-01 00:00:05.560,-0.578845,0.444773,7.542378,-0.474015,-0.04632,-0.091352
2024-01-01 00:00:05.570,-0.545714,0.404594,7.838044,-0.194101,0.001196,-0.048629
2024-01-01 00:00:05.580,-0.418454,0.396987,7.742494,-0.335117,-0.083093,-0.397714
2024-01-01 00:00:05.590,-0.486879,0.274153,7.953238,-0.289643,-0.073881,-0.136784
2024-01-01 00:00:05.600,-0.370841,0.476189,7.578609,-0.269832,0.137308,-0.345952
2024-01-01 00:00:05.610,-0.124593,0.374284,8.061855,-0.309921,0.165608,-0.116211
2024-01-01 00:00:05.620,-0.236003,0.217739,7.766553,-0.126046,0.186929,-0.09787
2024-01-01 00:00:05.630,-0.345529,0.637862,8.28979,-0.008212,0.26755,-0.286148
2024-01-01 00:00:05.640,-0.127201,0.622003,8.039617,-0.098654,0.18243,0.076459
2024-01-01 00:00:05.650,-0.284436,0.524149,8.35976,-0.122147,0.295984,-0.044395
2024-01-01 00:00:05.660,-0.44345,0.554825,8.702618,-0.232016,0.441354,-0.124743
2024-01-01 00:00:05.670,-0.282653,0.664046,8.447565,-0.030371,0.359989,0.071035
2024-01-01 00:00:05.680,-0.348495,0.568223,8.721836,0.187905,0.221122,-0.179078
2024-01-01 00:00:05.690,-0.128125,0.654321,9.167935,-0.094794,0.37971,-0.122889
2024-01-01 00:00:05.700,-0.045416,0.513028,8.995956,-0.072333,0.317415,-0.197564
2024-01-01 00:00:05.710,0.192007,0.707391,8.885261,-0.072568,0.481902,0.141465
2024-01-01 00:00:05.720,0.058783,0.58828,9.89068,-0.047557,0.487558,0.032174
2024-01-01 00:00:05.730,0.018896,0.572139,9.361584,-0.303614,0.247197,0.065663
2024-01-01 00:00:05.740,0.170292,0.394775,9.641634,0.08904,0.531884,0.044298
2024-01-01 00:00:05.750,-0.169093,0.579211,10.012028,-0.04647,0.299524,0.073399
2024-01-01 00:00:05.760,0.149868,0.441804,9.689497,-0.123749,0.609946,0.040987
2024-01-01 00:00:05.770,0.239285,0.461179,9.705121,0.174258,0.404575,0.063611
2024-01-01 00:00:05.780,-0.005659,0.435339,10.132243,-0.031687,0.246239,0.057686
2024-01-01 00:00:05.790,0.333781,0.39993,9.727913,0.071663,0.242019,0.007464
2024-01-01 00:00:05.800,0.261645,0.776836,10.206655,0.302273,0.402043,0.05942
2024-01-01 00:00:05.810,0.195389,0.674907,10.436866,-0.028978,0.292593,0.091951
2024-01-01 00:00:05.820,0.345026,0.738182,10.399097,-0.030145,0.305403,0.085727
2024-01-01 00:00:05.830,0.565082,0.352899,10.165216,0.199516,0.486284,-0.034622
2024-01-01 00:00:05.840,0.337536,0.499434,11.027179,0.318345,0.183016,-0.017396
2024-01-01 00:00:05.850,0.368187,0.32624,10.724718,0.004451,0.246862,0.183313
2024-01-01 00:00:05.860,0.305512,0.387908,11.119087,0.255,0.3815,0.078479
2024-01-01 00:00:05.870,0.280403,0.350512,10.750687,0.288225,0.213898,0.156031
2024-01-01 00:00:05.880,0.50326,0.598115,10.641728,-0.016459,-0.042013,0.02795
2024-01-01 00:00:05.890,0.321583,0.38989,10.966453,0.338285,0.179959,0.003381
2024-01-01 00:00:05.900,0.453023,0.553129,10.873828,0.359156,-0.052357,0.059494
2024-01-01 00:00:05.910,0.406642,0.484332,10.652988,0.227706,0.223442,0.114755
2024-01-01 00:00:05.920,0.54034,0.674635,11.325458,0.426203,-0.07699,0.084749
2024-01-01 00:00:05.930,0.541154,0.20649,10.803903,0.422726,0.345107,0.24669
2024-01-01 00:00:05.940,0.643199,0.520441,10.491727,0.308771,0.131924,0.16256
2024-01-01 00:00:05.950,0.474374,0.491719,11.267067,0.25187,-0.172445,0.300937
2024-01-01 00:00:05.960,0.519353,0.221677,10.783179,0.198539,-0.106727,0.189992
2024-01-01 00:00:05.970,0.449707,0.443221,10.722662,0.319583,-0.050383,-0.030959
2024-01-01 00:00:05.980,0.528501,0.34615,10.389957,0.400838,-0.077715,0.250717
2024-01-01 00:00:05.990,0.640969,0.261553,11.214781,0.301495,-0.148684,0.049434
2024-01-01 00:00:06.000,0.699607,0.172628,10.397249,0.084167,-0.080432,0.192376
2024-01-01 00:00:06.010,0.510365,0.167491,10.666461,0.507117,-0.273134,0.115461
2024-01-01 00:00:06.020,0.7368,0.481705,10.804752,0.384225,-0.328681,0.352116
2024-01-01 00:00:06.030,0.805696,0.217436,10.599699,0.321885,-0.351067,0.298888
2024-01-01 00:00:06.040,0.70234,0.292544,10.390395,0.475846,-0.229543,0.127148
2024-01-01 00:00:06.050,0.886774,0.084847,9.884775,0.56099,-0.310043,0.178828
2024-01-01 00:00:06.060,0.576646,0.066999,10.006999,0.046342,-0.338327,0.210854
2024-01-01 00:00:06.070,0.527183,0.271029,10.150516,0.438707,-0.295262,0.262371
2024-01-01 00:00:06.080,0.469228,-0.040338,9.796374,0.218902,-0.652125,0.197382
2024-01-01 00:00:06.090,0.867414,0.052042,9.929669,0.452973,-0.381918,0.114548
2024-01-01 00:00:06.100,0.770703,0.08607,9.931601,0.410882,-0.403773,0.140361
2024-01-01 00:00:06.110,0.688869,0.075361,9.881432,0.473738,-0.238308,0.198367
2024-01-01 00:00:06.120,0.73156,0.020431,9.211857,0.338927,-0.628202,0.298175
2024-01-01 00:00:06.130,0.564392,0.06929,9.94377,0.174897,-0.261725,0.23407
2024-01-01 00:00:06.140,0.993487,0.084775,9.461961,0.345954,-0.440943,0.138126
2024-01-01 00:00:06.150,0.715109,0.069627,9.145091,0.448595,-0.3903,0.251756
2024-01-01 00:00:06.160,0.711395,-0.156963,9.293948,0.520857,-0.244442,0.168546
2024-01-01 00:00:06.170,0.783087,-0.09285,9.490241,0.257092,-0.372439,0.270088
2024-01-01 00:00:06.180,0.750507,0.064615,8.418476,0.519125,-0.383502,0.4001
2024-01-01 00:00:06.190,0.715512,0.008701,8.603696,0.315768,-0.391967,0.16805
2024-01-01 00:00:06.200,0.588724,-0.283168,7.950485,0.434112,-0.466292,0.259437
2024-01-01 00:00:06.210,0.734173,-0.095855,8.482179,0.326011,-0.396732,0.133968
2024-01-01 00:00:06.220,0.896545,-0.394843,8.418727,0.405119,-0.462099,0.182648
2024-01-01 00:00:06.230,0.824355,-0.171034,8.215963,0.485828,-0.362489,0.191766
2024-01-01 00:00:06.240,0.8454,0.032092,7.966054,0.226597,-0.616435,0.171425
2024-01-01 00:00:06.250,0.583305,-0.328098,7.527317,0.286783,-0.261815,0.381227
2024-01-01 00:00:06.260,0.515465,-0.332892,8.049646,0.384605,-0.303401,0.156678
2024-01-01 00:00:06.270,0.607837,-0.1592,8.243696,0.644151,-0.303078,0.224929
2024-01-01 00:00:06.280,0.617495,-0.453792,7.663075,0.245451,-0.208891,0.02011
2024-01-01 00:00:06.290,0.729167,-0.361998,7.859626,0.586453,-0.378553,0.205378
2024-01-01 00:00:06.300,0.381021,-0.231521,7.304474,0.574312,0.054833,0.258255
2024-01-01 00:00:06.310,0.75313,-0.395828,7.766115,0.313799,-0.158216,0.12053
2024-01-01 00:00:06.320,0.535324,-0.36422,7.517412,0.280956,-0.131806,-0.042451
2024-01-01 00:00:06.330,0.487016,-0.262339,7.397935,0.224519,-0.197958,0.150691
2024-01-01 00:00:06.340,0.400023,-0.316322,7.380215,0.289802,-0.046601,0.150368
2024-01-01 00:00:06.350,0.305425,-0.349662,7.462751,0.119198,0.149862,0.201928
2024-01-01 00:00:06.360,0.584643,-0.436634,7.65674,0.268487,0.140727,0.29969
2024-01-01 00:00:06.370,0.475862,-0.365259,7.2422,0.446519,0.151851,0.103043
2024-01-01 00:00:06.380,0.292843,-0.437691,7.489153,0.182463,0.147524,0.059393
2024-01-01 00:00:06.390,0.272201,-0.380515,7.605238,0.215462,0.071127,0.028821
2024-01-01 00:00:06.400,0.366713,-0.507106,7.37686,0.028439,-0.028284,0.132134
2024-01-01 00:00:06.410,0.586141,-0.480804,8.145443,0.265378,0.15241,0.148594
2024-01-01 00:00:06.420,0.333039,-0.588496,7.535965,0.239846,0.178081,0.060402
2024-01-01 00:00:06.430,0.161655,-0.484075,7.64316,0.203091,0.360983,0.160018
2024-01-01 00:00:06.440,0.289926,-0.586722,7.634914,0.156503,0.299733,0.128492
2024-01-01 00:00:06.450,0.263641,-0.631959,8.405502,0.134222,0.48215,0.088135
2024-01-01 00:00:06.460,-0.050703,-0.475434,8.177509,0.216184,0.456886,0.005785
2024-01-01 00:00:06.470,0.242596,-0.488465,7.895096,0.138891,0.28124,0.032625
2024-01-01 00:00:06.480,0.197252,-0.426878,8.50184,0.166348,0.141629,-0.130105
2024-01-01 00:00:06.490,0.28406,-0.578687,8.377057,0.140378,0.542421,0.076153
2024-01-01 00:00:06.500,0.397671,-0.483407,8.49781,0.235266,0.556363,0.052335
2024-01-01 00:00:06.510,0.286029,-0.470983,8.458435,0.167434,0.244263,0.058176
2024-01-01 00:00:06.520,0.093417,-0.487689,8.472102,0.094963,0.602095,0.076255
2024-01-01 00:00:06.530,-0.032426,-0.643397,8.862028,0.239558,0.477355,0.059539
2024-01-01 00:00:06.540,0.383699,-0.528919,8.762038,0.09323,0.458979,0.012568
2024-01-01 00:00:06.550,0.05644,-0.504936,9.475165,0.184786,0.639304,0.017989
2024-01-01 00:00:06.560,0.025376,-0.548823,8.827605,0.086379,0.61033,-0.105572
2024-01-01 00:00:06.570,-0.005828,-0.800372,9.658286,-0.222706,0.528144,-0.047536
2024-01-01 00:00:06.580,-0.017636,-0.529778,9.432934,0.132919,0.503637,-0.007793
2024-01-01 00:00:06.590,-0.097077,-0.280915,9.719627,-0.029353,0.512284,-0.081655
2024-01-01 00:00:06.600,-0.1867,-0.585353,10.032584,-0.073584,0.376479,0.035137
2024-01-01 00:00:06.610,-0.221235,-0.623607,9.839352,-0.055159,0.398911,-0.097151
2024-01-01 00:00:06.620,-0.196822,-0.483904,10.37669,-0.151622,0.273382,-0.037807
2024-01-01 00:00:06.630,-0.294799,-0.482091,9.63657,-0.10395,0.31322,-0.056271
2024-01-01 00:00:06.640,-0.351132,-0.365746,10.273554,-0.222791,0.276444,-0.016181
2024-01-01 00:00:06.650,-0.288018,-0.647579,10.348206,-0.018967,0.207586,-0.013877
2024-01-01 00:00:06.660,-0.365677,-0.395127,10.375572,-0.205104,0.260184,-0.040214
2024-01-01 00:00:06.670,-0.187877,-0.39684,10.727665,-0.256399,0.161903,-0.273725
2024-01-01 00:00:06.680,-0.718635,-0.468132,10.951909,-0.339859,0.215628,-0.018902
2024-01-01 00:00:06.690,-0.300489,-0.392452,11.085921,-0.214301,-0.086617,-0.001093
2024-01-01 00:00:06.700,-0.311587,-0.29027,11.005315,-0.241043,0.045855,-0.170318
2024-01-01 00:00:06.710,-0.738176,-0.288586,10.793145,-0.233029,0.02592,-0.120888
2024-01-01 00:00:06.720,-0.557265,-0.508696,11.045755,-0.418209,-0.076587,-0.218736
2024-01-01 00:00:06.730,-0.585927,-0.250261,10.958036,-0.501487,-0.108969,-0.310543
2024-01-01 00:00:06.740,-0.733831,-0.332534,11.114296,-0.247746,-0.326415,-0.220506
2024-01-01 00:00:06.750,-0.680134,-0.291137,11.00825,-0.157155,-0.139666,-0.210867
2024-01-01 00:00:06.760,-0.740158,-0.265301,10.736587,-0.469956,-0.148783,-0.201785
2024-01-01 00:00:06.770,-0.414874,-0.265488,10.401852,-0.166493,-0.208586,-0.255326
2024-01-01 00:00:06.780,-0.529232,-0.07708,10.343614,-0.33251,-0.181241,-0.241964
2024-01-01 00:00:06.790,-0.503354,-0.202092,10.23502,-0.375671,-0.316086,-0.188292
2024-01-01 00:00:06.800,-0.581784,-0.297771,10.145822,-0.42964,-0.313097,-0.252585
2024-01-01 00:00:06.810,-0.814293,-0.181535,10.132164,-0.554032,-0.377598,-0.150463
2024-01-01 00:00:06.820,-0.75012,-0.083348,10.074726,-0.274145,-0.334823,-0.141803
2024-01-01 00:00:06.830,-0.634744,0.072552,9.706248,-0.489341,-0.622553,-0.007703
2024-01-01 00:00:06.840,-0.84432,0.027482,9.540606,-0.492242,-0.551234,-0.109278
2024-01-01 00:00:06.850,-0.61419,-0.116754,9.386606,-0.280826,-0.25893,-0.18048
2024-01-01 00:00:06.860,-0.728559,0.313777,9.03491,-0.625798,-0.744533,-0.249541
2024-01-01 00:00:06.870,-0.742552,0.077524,8.746807,-0.581445,-0.460594,-0.175807
2024-01-01 00:00:06.880,-0.608003,0.228857,8.356971,-0.398358,-0.292228,-0.171963
2024-01-01 00:00:06.890,-0.633655,0.087434,8.445329,-0.357358,-0.427989,-0.237341
2024-01-01 00:00:06.900,-0.721853,0.199152,8.568434,-0.329568,-0.444258,-0.131169
2024-01-01 00:00:06.910,-0.528937,0.264987,8.115239,-0.417962,-0.354203,-0.302721
2024-01-01 00:00:06.920,-0.785283,0.339039,8.084046,-0.070959,-0.381717,-0.206854
2024-01-01 00:00:06.930,-0.56716,0.347761,8.126131,-0.393674,-0.301148,-0.138695
2024-01-01 00:00:06.940,-0.553478,0.352894,8.020834,-0.384638,-0.348678,-0.201478
2024-01-01 00:00:06.950,-0.643486,0.237023,7.518468,-0.442118,-0.092231,-0.18978
2024-01-01 00:00:06.960,-0.54706,0.231996,7.953091,-0.3201,-0.010357,-0.178507
2024-01-01 00:00:06.970,-0.714413,0.365382,7.919947,-0.24865,-0.150844,-0.228071
2024-01-01 00:00:06.980,-0.429773,0.461323,7.309533,-0.164517,-0.253273,-0.060561
2024-01-01 00:00:06.990,-0.537587,0.345444,7.360082,-0.473228,-0.100764,-0.2287
2024-01-01 00:00:07.000,-0.551309,0.521688,7.858333,-0.308709,-0.010531,-0.114142
2024-01-01 00:00:07.010,-0.334408,0.588687,7.538905,-0.209418,0.121523,-0.098419
2024-01-01 00:00:07.020,-0.515125,0.323668,7.05609,-0.175612,-0.011528,-0.198919
2024-01-01 00:00:07.030,-0.568631,0.351138,7.31646,-0.227566,0.064387,-0.108328
2024-01-01 00:00:07.040,-0.554216,0.4513,7.678645,-0.144863,0.263327,-0.177748
2024-01-01 00:00:07.050,-0.261392,0.520219,7.543192,-0.287997,0.357631,0.015822
2024-01-01 00:00:07.060,-0.453448,0.434057,7.840798,0.015637,0.210327,-0.176759
2024-01-01 00:00:07.070,-0.053997,0.671466,8.078358,-0.032069,0.161445,-0.127904
2024-01-01 00:00:07.080,-0.47838,0.570747,8.576306,-0.291991,0.748153,-0.163238
2024-01-01 00:00:07.090,0.011741,0.533677,8.291294,-0.238632,0.476404,-0.163426
2024-01-01 00:00:07.100,-0.129217,0.36412,8.796039,-0.213939,0.374094,0.083143
2024-01-01 00:00:07.110,-0.128382,0.384395,9.057937,0.014627,0.529237,0.010057
2024-01-01 00:00:07.120,-0.144052,0.580237,9.238928,-0.199117,0.4237,-0.011251
2024-01-01 00:00:07.130,0.007588,0.293176,9.135731,-0.062756,0.551075,-0.064043
2024-01-01 00:00:07.140,-0.006349,0.671515,8.760274,0.053517,0.469121,0.072085
2024-01-01 00:00:07.150,0.156834,0.530686,9.493832,0.006025,0.459856,-0.058956
2024-01-01 00:00:07.160,0.063772,0.937763,9.764649,0.059675,0.431766,0.077795
2024-01-01 00:00:07.170,0.093661,0.823731,9.604903,-0.084682,0.26581,-0.048194
2024-01-01 00:00:07.180,0.057449,0.522461,10.181974,0.129144,0.663804,-0.02268
2024-01-01 00:00:07.190,0.119572,0.528198,10.078833,-0.001354,0.307668,0.096778
2024-01-01 00:00:07.200,0.188494,0.656424,10.120744,0.04765,0.244608,0.112408
2024-01-01 00:00:07.210,-0.028714,0.736609,10.361209,0.129388,0.367234,0.098228
2024-01-01 00:00:07.220,0.039435,0.330224,10.279436,0.127351,0.260257,-0.026483
2024-01-01 00:00:07.230,0.31485,0.306273,9.674339,0.131825,0.350265,0.028736
2024-01-01 00:00:07.240,0.2703,0.439144,10.268629,0.052665,0.417923,0.083922
2024-01-01 00:00:07.250,0.25152,0.576177,10.782486,0.120396,0.431946,0.010228
2024-01-01 00:00:07.260,0.299244,0.557654,10.364502,0.169995,0.385716,0.194543
2024-01-01 00:00:07.270,0.361777,0.617512,10.586716,0.017885,0.225164,-0.100708
2024-01-01 00:00:07.280,0.277901,0.335628,10.450129,0.140309,0.240274,0.035607
2024-01-01 00:00:07.290,0.271419,0.191463,11.218272,0.254988,0.254493,0.063468
2024-01-01 00:00:07.300,0.409971,0.56154,11.24549,0.067547,-0.035267,-0.117096
2024-01-01 00:00:07.310,0.290199,0.347756,10.648563,0.371706,0.213313,0.00476
2024-01-01 00:00:07.320,0.477181,0.192881,10.942118,0.397034,-0.061636,0.172363
2024-01-01 00:00:07.330,0.243891,0.439882,10.76209,0.106697,0.32587,0.13048
2024-01-01 00:00:07.340,0.591108,0.504463,11.103882,0.43012,-0.00016,0.259454
2024-01-01 00:00:07.350,0.543101,0.380892,11.086415,0.260707,-0.006711,0.262587
2024-01-01 00:00:07.360,0.53524,0.326323,11.161638,0.338517,-0.109881,0.178791
2024-01-01 00:00:07.370,0.639887,0.347354,11.032278,0.238667,-0.126008,0.174192
2024-01-01 00:00:07.380,0.738567,0.306728,11.664658,0.4186,0.189854,0.159192
2024-01-01 00:00:07.390,0.676457,0.173681,10.646354,0.365722,-0.002372,-0.053911
2024-01-01 00:00:07.400,0.349105,0.233483,10.439379,0.228021,-0.33268,0.051295
2024-01-01 00:00:07.410,0.430971,0.365167,10.723816,0.194187,0.002959,0.17506
2024-01-01 00:00:07.420,0.523267,0.324176,10.376754,0.166618,-0.064174,0.220209
2024-01-01 00:00:07.430,0.614297,0.28832,10.334189,0.371791,-0.26981,0.197793
2024-01-01 00:00:07.440,0.685385,0.130953,10.387751,0.424848,-0.226694,0.106679
2024-01-01 00:00:07.450,0.547438,0.210471,10.330901,0.440703,-0.291308,0.256286
2024-01-01 00:00:07.460,0.667348,-0.047427,10.239168,0.354377,-0.077267,0.302863
2024-01-01 00:00:07.470,0.563832,0.216519,10.517205,0.235148,-0.432304,0.262033
2024-01-01 00:00:07.480,0.589758,0.347584,10.164871,0.297088,-0.340192,0.268637
2024-01-01 00:00:07.490,0.502112,-0.019992,10.144763,0.52166,-0.428132,0.146951
2024-01-01 00:00:07.500,0.566992,0.067164,10.306428,0.329148,-0.565735,0.279726
2024-01-01 00:00:07.510,0.521536,0.157355,9.780094,0.407918,-0.145674,0.207015
2024-01-01 00:00:07.520,0.571673,0.248431,9.790518,0.264509,-0.563161,0.237718
2024-01-01 00:00:07.530,0.819328,0.0244,9.829868,0.436328,-0.405397,0.227203
2024-01-01 00:00:07.540,0.582145,-0.024892,9.132237,0.342834,-0.648814,0.189159
2024-01-01 00:00:07.550,1.014205,-0.198179,8.898683,0.524645,-0.493572,0.13072
2024-01-01 00:00:07.560,0.758825,0.030366,9.457456,0.492614,-0.398405,0.193322
2024-01-01 00:00:07.570,0.722175,0.242841,9.369351,0.340512,-0.548954,0.278939
2024-01-01 00:00:07.580,0.596418,0.010915,9.637896,0.384469,-0.378095,0.164516
2024-01-01 00:00:07.590,0.781945,-0.04517,9.037602,0.33267,-0.476912,0.27087
2024-01-01 00:00:07.600,0.626379,-0.023919,9.080658,0.227071,-0.299143,0.257667
2024-01-01 00:00:07.610,0.70671,-0.083888,8.706565,0.292575,-0.266311,0.173819
2024-01-01 00:00:07.620,0.994963,-0.199995,8.712162,0.416788,-0.489192,0.307605
2024-01-01 00:00:07.630,0.670984,-0.023379,8.940435,0.429038,-0.396384,0.16656
2024-01-01 00:00:07.640,0.814266,-0.114656,7.882346,0.404313,-0.368207,0.314008
2024-01-01 00:00:07.650,0.584905,-0.159018,8.411022,0.346241,-0.298431,0.225955
2024-01-01 00:00:07.660,0.65712,-0.297344,8.740907,0.489864,-0.351556,0.187679
2024-01-01 00:00:07.670,0.864959,-0.042804,8.182571,0.380461,-0.309087,0.115394
2024-01-01 00:00:07.680,0.567494,-0.138119,8.435927,0.451665,-0.337967,0.176576
2024-01-01 00:00:07.690,0.849627,-0.302598,7.783849,0.148366,-0.270116,0.164309
2024-01-01 00:00:07.700,0.705617,-0.134076,7.858097,-0.11601,-0.101852,0.076675
2024-01-01 00:00:07.710,0.54091,-0.331709,7.806939,0.381715,-0.152351,0.156421
2024-01-01 00:00:07.720,0.671196,-0.383181,7.184463,0.169204,-0.116771,0.105783
2024-01-01 00:00:07.730,0.698115,-0.397456,7.395295,0.306739,-0.084114,0.212996
2024-01-01 00:00:07.740,0.641345,-0.535359,7.370052,0.287593,-0.158381,0.266425
2024-01-01 00:00:07.750,0.362859,-0.282351,7.815403,0.505509,-0.069955,0.059357
2024-01-01 00:00:07.760,0.447847,-0.574324,7.802409,0.353773,-0.206144,0.289871
2024-01-01 00:00:07.770,0.488499,-0.517173,7.648869,0.316018,0.109034,0.137773
2024-01-01 00:00:07.780,0.491671,-0.633507,7.76647,0.386498,-0.344247,0.065028
2024-01-01 00:00:07.790,0.556812,-0.408924,7.521126,0.319837,0.012238,0.198429
2024-01-01 00:00:07.800,0.484735,-0.430258,7.873491,0.209885,0.192469,0.096687
2024-01-01 00:00:07.810,0.283627,-0.464493,7.595116,0.382216,-0.075536,0.120281
2024-01-01 00:00:07.820,0.469353,-0.562896,7.636256,0.108961,0.168194,0.088723
2024-01-01 00:00:07.830,0.476291,-0.590365,7.593068,0.269087,0.069975,0.04981
2024-01-01 00:00:07.840,0.448945,-0.405278,7.876856,0.032446,0.138043,0.166997
2024-01-01 00:00:07.850,0.4897,-0.537754,7.655076,0.230191,0.325464,0.079955
2024-01-01 00:00:07.860,0.437829,-0.443776,8.067175,0.216164,0.26423,-0.01843
2024-01-01 00:00:07.870,0.370159,-0.597373,7.610444,0.381207,0.023561,0.134101
2024-01-01 00:00:07.880,0.283512,-0.478159,7.696512,-0.020979,0.176294,-0.013037
2024-01-01 00:00:07.890,0.069099,-0.351566,8.227783,0.081273,0.43471,-0.015571
2024-01-01 00:00:07.900,0.296091,-0.445008,8.124947,0.238457,0.39404,0.165276
2024-01-01 00:00:07.910,0.245252,-0.571535,8.130749,0.166141,0.570612,-0.032756
2024-01-01 00:00:07.920,0.228416,-0.497176,8.569335,0.133537,0.581483,-0.129365
2024-01-01 00:00:07.930,0.01785,-0.562205,8.302511,-0.016988,0.355185,0.098703
2024-01-01 00:00:07.940,0.016337,-0.536948,8.516112,0.012567,0.711202,0.017424
2024-01-01 00:00:07.950,0.24725,-0.580812,9.031535,0.218474,0.426103,0.017122
2024-01-01 00:00:07.960,0.09077,-0.564576,9.185187,0.0484,0.317722,0.00213
2024-01-01 00:00:07.970,0.151813,-0.521789,9.314644,0.085062,0.364955,0.038543
2024-01-01 00:00:07.980,0.047854,-0.668093,8.973976,0.011581,0.175563,-0.047516
2024-01-01 00:00:07.990,0.022389,-0.671707,9.476304,-0.131217,0.642192,0.123466
2024-01-01 00:00:08.000,0.102328,-0.716566,9.072618,0.106191,0.641178,-0.121031
2024-01-01 00:00:08.010,-0.110649,-0.740699,9.269359,0.032546,0.323779,0.021669
2024-01-01 00:00:08.020,-0.0755,-0.691806,9.091846,0.226942,0.408741,0.026503
2024-01-01 00:00:08.030,-0.180556,-0.522013,10.275983,-0.193346,0.432736,-0.09651
2024-01-01 00:00:08.040,-0.214892,-0.642062,9.812852,0.005708,0.286106,-0.128399
2024-01-01 00:00:08.050,-0.23703,-0.465456,10.159002,-0.271631,0.16597,0.024251
2024-01-01 00:00:08.060,-0.209846,-0.513492,10.113595,-0.116263,0.322022,-0.146841
2024-01-01 00:00:08.070,-0.32981,-0.742881,10.652441,-0.038454,0.275221,-0.12635
2024-01-01 00:00:08.080,-0.156704,-0.415535,10.507487,-0.42431,0.229835,-0.016842
2024-01-01 00:00:08.090,-0.448852,-0.382813,10.381723,-0.219734,0.262523,-0.094792
2024-01-01 00:00:08.100,-0.396996,-0.583897,10.907376,-0.281626,0.363842,-0.250792
2024-01-01 00:00:08.110,-0.459278,-0.39733,10.508985,-0.316526,0.110107,0.023619
2024-01-01 00:00:08.120,-0.263583,-0.532299,10.709095,-0.203615,0.11934,-0.167321
2024-01-01 00:00:08.130,-0.443022,-0.398266,10.422709,-0.132151,0.137324,-0.165537
2024-01-01 00:00:08.140,-0.370764,-0.540954,10.604008,-0.298614,0.067204,-0.120847
2024-01-01 00:00:08.150,-0.699335,-0.582438,10.99465,-0.273094,-0.122425,-0.09887
2024-01-01 00:00:08.160,-0.513927,-0.390143,10.428478,-0.298268,-0.085941,0.000896
2024-01-01 00:00:08.170,-0.462473,-0.334952,10.498862,-0.325057,-0.079436,-0.295442
2024-01-01 00:00:08.180,-0.580888,-0.342757,10.798643,-0.4683,-0.326423,-0.102713
2024-01-01 00:00:08.190,-0.482652,-0.411158,10.574818,-0.215849,-0.082967,-0.114991
2024-01-01 00:00:08.200,-0.690486,-0.290288,11.102679,-0.323669,-0.103537,-0.190519
2024-01-01 00:00:08.210,-0.475291,-0.182478,10.940843,-0.32085,-0.399469,-0.121136
2024-01-01 00:00:08.220,-0.382597,-0.192024,10.128313,-0.473047,-0.323124,-0.113391
2024-01-01 00:00:08.230,-0.714067,-0.136015,10.334386,-0.438264,-0.298733,-0.302136
2024-01-01 00:00:08.240,-0.734021,-0.209131,10.220929,-0.410028,-0.46618,-0.054465
2024-01-01 00:00:08.250,-0.51413,0.041477,9.713395,-0.577544,-0.36297,-0.321426
2024-01-01 00:00:08.260,-0.504882,-0.210383,9.31075,-0.599382,-0.416145,-0.289234
2024-01-01 00:00:08.270,-0.760968,0.019362,9.4983,-0.471075,-0.621591,-0.220436
2024-01-01 00:00:08.280,-0.75033,0.132897,9.271985,-0.337245,-0.394663,-0.045978
2024-01-01 00:00:08.290,-0.733288,0.079021,9.019409,-0.478076,-0.580666,-0.22451
2024-01-01 00:00:08.300,-0.85826,0.027187,9.053675,-0.5205,-0.329408,-0.201676
2024-01-01 00:00:08.310,-0.802508,0.018116,8.57399,-0.493345,-0.510777,-0.083225
2024-01-01 00:00:08.320,-0.806017,0.235618,8.298271,-0.446367,-0.432507,-0.219888
2024-01-01 00:00:08.330,-0.768834,-0.03003,8.446283,-0.429148,-0.226406,-0.287617
2024-01-01 00:00:08.340,-0.669992,0.053325,8.358411,-0.120612,-0.304713,-0.223616
2024-01-01 00:00:08.350,-0.624843,0.150533,7.822725,-0.246559,-0.462613,-0.076893
2024-01-01 00:00:08.360,-0.452032,0.37466,8.217694,-0.241651,-0.419638,-0.176643
2024-01-01 00:00:08.370,-0.741109,0.29893,7.427237,-0.214803,-0.330937,-0.023064
2024-01-01 00:00:08.380,-0.484524,0.163644,7.626317,-0.464226,-0.169704,-0.113149
2024-01-01 00:00:08.390,-0.607835,0.268177,7.625329,-0.479344,-0.129484,-0.217915
2024-01-01 00:00:08.400,-0.565845,0.256376,7.468738,-0.452773,-0.226985,-0.155888
2024-01-01 00:00:08.410,-0.454991,0.268604,7.444219,-0.146127,-0.217691,-0.221391
2024-01-01 00:00:08.420,-0.645135,0.493858,8.031182,-0.357325,0.00529,-0.199306
2024-01-01 00:00:08.430,-0.437415,0.233258,7.349126,-0.426337,-0.000854,0.22024
2024-01-01 00:00:08.440,-0.434765,0.611193,8.19111,-0.31157,0.329052,-0.048435
2024-01-01 00:00:08.450,-0.365704,0.536534,7.729339,-0.271375,0.122947,-0.052483
2024-01-01 00:00:08.460,-0.358873,0.585736,7.702145,-0.19269,0.3832,-0.162304
2024-01-01 00:00:08.470,-0.066522,0.415591,7.876371,-0.176262,0.069979,0.022379
2024-01-01 00:00:08.480,-0.40418,0.468036,8.486135,-0.286611,0.064031,-0.005661
2024-01-01 00:00:08.490,-0.356873,0.327467,7.718594,-0.085237,0.157743,0.066772
2024-01-01 00:00:08.500,-0.332546,0.448392,7.815854,-0.224,0.470654,0.073001
2024-01-01 00:00:08.510,-0.288262,0.58095,8.050277,-0.145385,0.570532,-0.181643
2024-01-01 00:00:08.520,-0.261258,0.686021,8.402405,-0.023171,0.293432,-0.141579
2024-01-01 00:00:08.530,-0.004697,0.404813,8.128764,-0.161235,0.354837,-0.122411
2024-01-01 00:00:08.540,0.06092,0.499363,8.740087,-0.130917,0.287683,-0.106812
2024-01-01 00:00:08.550,-0.13986,0.528978,9.338535,0.030217,0.223247,0.005485
2024-01-01 00:00:08.560,-0.132868,0.381894,9.137815,-0.121777,0.534211,-0.054769
2024-01-01 00:00:08.570,0.060236,0.620954,9.204637,-0.04408,0.476738,0.166855
2024-01-01 00:00:08.580,-0.036944,0.462638,9.24776,0.083445,0.449679,0.160752
2024-01-01 00:00:08.590,0.130891,0.524857,9.750654,0.277885,0.276449,0.01518
2024-01-01 00:00:08.600,0.104833,0.492119,9.441865,0.118639,0.634897,0.179421
2024-01-01 00:00:08.610,-0.075972,0.448947,10.230133,0.117241,0.368992,0.149313
2024-01-01 00:00:08.620,0.316911,0.539406,10.36935,0.138673,0.482414,0.001432
2024-01-01 00:00:08.630,0.371832,0.510236,10.06431,-0.039454,0.230567,-0.116073
2024-01-01 00:00:08.640,0.107698,0.486624,10.107378,0.117433,0.366809,0.034343
2024-01-01 00:00:08.650,0.159371,0.438255,10.473487,0.114082,0.407101,0.007257
2024-01-01 00:00:08.660,0.264584,0.55773,10.589949,0.170179,0.391849,0.082315
2024-01-01 00:00:08.670,0.294492,0.710839,10.209501,0.159328,0.349726,0.079812
2024-01-01 00:00:08.680,0.357116,0.521522,10.367925,0.204473,0.3673,0.084496
2024-01-01 00:00:08.690,0.542676,0.615921,10.250879,0.134882,0.147428,0.128024
2024-01-01 00:00:08.700,0.303173,0.320544,10.758531,0.192408,0.280387,-0.004314
2024-01-01 00:00:08.710,0.25113,0.496632,10.890217,0.050904,0.242586,0.132031
2024-01-01 00:00:08.720,0.203461,0.335703,10.445508,0.172456,0.227737,0.070253
2024-01-01 00:00:08.730,0.302825,0.279215,10.720434,0.390064,0.178545,0.12758
2024-01-01 00:00:08.740,0.407593,0.356167,10.540203,0.273439,-0.013907,0.194184
2024-01-01 00:00:08.750,0.647394,0.575767,10.686408,0.244374,-0.05099,0.02549
2024-01-01 00:00:08.760,0.389832,0.534007,11.07408,0.485789,-0.190874,0.106624
2024-01-01 00:00:08.770,0.498091,0.435867,10.769163,0.105978,0.140232,0.125156
2024-01-01 00:00:08.780,0.487923,0.208936,10.884439,0.146805,0.10851,0.098828
2024-01-01 00:00:08.790,0.6505,0.354933,10.550794,0.49575,0.077432,0.217098
2024-01-01 00:00:08.800,0.828441,0.399809,10.993222,0.305635,-0.019838,0.092429
2024-01-01 00:00:08.810,0.478115,0.369298,10.915194,0.280501,-0.34518,0.110373
2024-01-01 00:00:08.820,0.498968,0.11114,10.714855,0.174782,-0.244486,0.10255
2024-01-01 00:00:08.830,0.698133,0.209271,10.811875,0.381057,-0.132253,0.251031
2024-01-01 00:00:08.840,0.669023,0.291709,10.857642,0.400876,-0.167042,0.128375
2024-01-01 00:00:08.850,0.822374,0.34664,10.553946,0.211957,-0.23965,0.208452
2024-01-01 00:00:08.860,0.683606,0.001258,10.325643,0.333758,-0.197123,0.333352
2024-01-01 00:00:08.870,0.582361,0.22749,11.075436,0.317153,-0.267169,0.172722
2024-01-01 00:00:08.880,0.707455,0.24593,10.387727,0.394475,-0.279806,0.270844
2024-01-01 00:00:08.890,0.779865,0.31223,10.436947,0.235302,-0.395136,0.318514
2024-01-01 00:00:08.900,0.754654,0.274649,10.622482,0.525203,-0.223045,0.26966
2024-01-01 00:00:08.910,0.725562,0.242387,11.154707,0.489721,-0.413184,0.188567
2024-01-01 00:00:08.920,0.80029,0.057225,9.858551,0.340584,-0.539832,0.243451
2024-01-01 00:00:08.930,0.819301,-0.095208,10.174469,0.362022,-0.489294,0.091006
2024-01-01 00:00:08.940,0.850628,0.066941,9.773154,0.374926,-0.453077,0.133245
2024-01-01 00:00:08.950,0.767478,0.214504,9.699665,0.300679,-0.304258,0.148664
2024-01-01 00:00:08.960,0.673515,0.241597,9.535544,0.343114,-0.438611,0.377411
2024-01-01 00:00:08.970,0.714179,0.139623,9.312968,0.365609,-0.463547,0.134014
2024-01-01 00:00:08.980,0.843422,0.08578,9.461047,0.592767,-0.596348,0.133413
2024-01-01 00:00:08.990,0.601737,0.059671,8.978597,0.513462,-0.355149,0.11642
2024-01-01 00:00:09.000,0.744198,-0.072784,9.459307,0.512134,-0.528125,0.244773
2024-01-01 00:00:09.010,0.652004,-0.041812,9.111941,0.443937,-0.45996,0.211183
2024-01-01 00:00:09.020,0.700962,0.153963,9.080253,0.264499,-0.265993,0.28623
2024-01-01 00:00:09.030,0.848297,-0.17949,8.736084,0.392097,-0.375837,0.252239
2024-01-01 00:00:09.040,0.714251,0.107422,8.641007,0.511498,-0.623205,0.087088
2024-01-01 00:00:09.050,0.692398,-0.144848,8.68771,0.24148,-0.628783,0.131654
2024-01-01 00:00:09.060,0.518226,0.033137,8.211279,0.465763,-0.410547,0.303915
2024-01-01 00:00:09.070,0.764627,-0.314273,8.303339,0.664471,-0.532582,0.176615
2024-01-01 00:00:09.080,0.745295,-0.094492,8.073139,0.509039,-0.29137,0.285818
2024-01-01 00:00:09.090,0.919291,-0.272337,7.96583,0.546655,-0.344283,0.176511
2024-01-01 00:00:09.100,0.613743,-0.372633,7.567202,0.398016,-0.307789,0.108495
2024-01-01 00:00:09.110,0.667076,-0.19518,8.341945,0.48231,-0.388965,0.158818
2024-01-01 00:00:09.120,0.659944,-0.118574,7.754664,0.273868,-0.070075,0.102561
2024-01-01 00:00:09.130,0.807705,-0.359088,8.143497,0.448881,0.088685,0.131445
2024-01-01 00:00:09.140,0.594538,-0.455214,8.053769,0.424797,-0.257886,0.189209
2024-01-01 00:00:09.150,0.626203,-0.303622,7.406908,0.373487,-0.152913,0.210277
2024-01-01 00:00:09.160,0.651619,-0.319967,7.406374,0.488591,-0.153361,0.03812
2024-01-01 00:00:09.170,0.586238,-0.260135,8.277172,0.257543,-0.165099,0.159709
2024-01-01 00:00:09.180,0.494688,-0.228002,8.042069,0.290845,-0.201951,0.109717
2024-01-01 00:00:09.190,0.55523,-0.364644,7.572648,0.31542,-0.199916,0.100109
2024-01-01 00:00:09.200,0.643738,-0.149934,7.630088,0.170676,-0.173235,0.15773
2024-01-01 00:00:09.210,0.373992,-0.360265,7.402356,0.311331,0.044622,0.098013
2024-01-01 00:00:09.220,0.494733,-0.442804,7.671615,0.067315,-0.03339,0.247364
2024-01-01 00:00:09.230,0.375722,-0.60814,7.396808,0.388341,-0.247602,0.226398
2024-01-01 00:00:09.240,0.583483,-0.459233,7.089643,0.257069,0.147666,0.220283
2024-01-01 00:00:09.250,0.237045,-0.480468,7.297904,0.177394,0.121674,0.080358
2024-01-01 00:00:09.260,0.331943,-0.336661,7.672898,0.127883,0.319171,0.037004
2024-01-01 00:00:09.270,0.422929,-0.407587,7.432747,0.187658,0.232802,0.114466
2024-01-01 00:00:09.280,0.543668,-0.615176,7.754886,0.285908,0.040034,0.089631
2024-01-01 00:00:09.290,0.325579,-0.46291,7.56723,0.256282,-0.021809,0.046571
2024-01-01 00:00:09.300,0.24406,-0.412276,7.71215,0.092869,0.186373,-0.005292
2024-01-01 00:00:09.310,0.513221,-0.318113,8.200142,0.062751,0.223189,0.078816
2024-01-01 00:00:09.320,0.090132,-0.402919,8.134675,0.229624,0.43527,0.043073
2024-01-01 00:00:09.330,-0.023907,-0.425376,8.162724,0.050433,0.343184,0.123625
2024-01-01 00:00:09.340,0.268486,-0.516031,8.483101,0.130437,0.500598,0.114833
2024-01-01 00:00:09.350,0.130882,-0.482504,8.487089,0.124067,0.223924,0.142672
2024-01-01 00:00:09.360,0.043768,-0.38431,8.836953,0.132485,0.515026,-0.053225
2024-01-01 00:00:09.370,0.226282,-0.698615,8.472941,0.183724,0.499858,0.07245
2024-01-01 00:00:09.380,0.14531,-0.584321,8.596703,-0.085239,0.183074,-0.025039
2024-01-01 00:00:09.390,0.022982,-0.638075,8.498028,-0.177527,0.593614,-0.071727
2024-01-01 00:00:09.400,-0.088469,-0.502113,8.837601,-0.030855,0.453415,-0.015669
2024-01-01 00:00:09.410,0.144271,-0.401494,9.309273,0.238798,0.494169,0.096804
2024-01-01 00:00:09.420,0.091956,-0.621528,9.517343,0.250622,0.345856,-0.025805
2024-01-01 00:00:09.430,-0.029498,-0.836663,9.58552,0.209686,0.602461,0.120209
2024-01-01 00:00:09.440,0.16556,-0.597701,9.082754,-0.055178,0.30193,0.0279
2024-01-01 00:00:09.450,-0.222716,-0.435369,9.984667,-0.267743,0.533516,-0.058472
2024-01-01 00:00:09.460,-0.315353,-0.475573,9.431345,-0.356759,0.516329,0.055007
2024-01-01 00:00:09.470,-0.252904,-0.482176,10.284971,-0.170756,0.280096,-0.012904
2024-01-01 00:00:09.480,-0.212416,-0.559014,10.128289,-0.142024,0.609344,-0.133732
2024-01-01 00:00:09.490,-0.21419,-0.669167,10.544056,0.016995,0.368977,0.079164
2024-01-01 00:00:09.500,-0.308048,-0.442556,10.170101,-0.055349,0.385391,-0.058985
2024-01-01 00:00:09.510,-0.271719,-0.591688,10.915771,-0.15212,0.085691,-0.088201
2024-01-01 00:00:09.520,-0.498066,-0.21518,10.360028,-0.305571,0.481844,-0.167837
2024-01-01 00:00:09.530,-0.207493,-0.393064,10.644728,-0.332862,0.036788,-0.014421
2024-01-01 00:00:09.540,-0.422316,-0.514061,10.629133,-0.205195,0.260519,-0.076463
2024-01-01 00:00:09.550,-0.308847,-0.499263,10.487337,-0.169453,-0.029705,-0.07621
2024-01-01 00:00:09.560,-0.430922,-0.417277,10.976658,-0.222717,-0.033559,-0.175474
2024-01-01 00:00:09.570,-0.444937,-0.413862,11.411203,-0.409722,0.08593,-0.076057
2024-01-01 00:00:09.580,-0.457563,-0.228936,11.61252,-0.222454,0.065251,-0.077322
2024-01-01 00:00:09.590,-0.496807,-0.317322,10.93582,-0.263481,-0.259242,-0.210797
2024-01-01 00:00:09.600,-0.496338,-0.403197,11.136479,-0.456174,-0.023175,-0.277206
2024-01-01 00:00:09.610,-0.435165,-0.063304,10.841804,-0.433926,-0.074117,-0.123394
2024-01-01 00:00:09.620,-0.590481,-0.258118,10.816556,-0.268274,-0.355139,-0.301314
2024-01-01 00:00:09.630,-0.546527,-0.144854,10.497048,-0.389059,-0.090886,-0.168298
2024-01-01 00:00:09.640,-0.658009,-0.282465,10.506119,-0.179154,-0.494268,-0.220705
2024-01-01 00:00:09.650,-0.488103,-0.137633,10.452013,-0.317531,-0.427279,-0.09134
2024-01-01 00:00:09.660,-0.753762,-0.115055,10.02054,-0.442736,-0.323429,-0.223598
2024-01-01 00:00:09.670,-0.466126,-0.349867,9.982352,-0.391076,-0.507337,-0.106344
2024-01-01 00:00:09.680,-0.694639,0.148376,9.814724,-0.386577,-0.392356,-0.238228
2024-01-01 00:00:09.690,-0.867009,0.091355,9.856658,-0.48473,-0.409066,-0.118662
2024-01-01 00:00:09.700,-0.683336,-0.08106,9.19956,-0.508773,-0.469131,-0.034804
2024-01-01 00:00:09.710,-0.781715,-0.135441,9.266703,-0.315827,-0.350082,-0.28544
2024-01-01 00:00:09.720,-0.598275,0.068776,9.570874,-0.298082,-0.475223,-0.176395
2024-01-01 00:00:09.730,-0.774516,0.067627,9.199191,-0.325375,-0.412473,0.020988
2024-01-01 00:00:09.740,-0.744687,0.129886,9.065027,-0.213102,-0.289798,-0.192143
2024-01-01 00:00:09.750,-0.910744,0.139913,8.559829,-0.45587,-0.314443,-0.190485
2024-01-01 00:00:09.760,-0.729062,0.207037,8.468495,-0.184679,-0.292008,-0.129716
2024-01-01 00:00:09.770,-0.954396,0.348888,8.483866,-0.487271,-0.496566,-0.186294
2024-01-01 00:00:09.780,-0.840338,0.271776,8.480841,-0.493105,-0.263689,-0.322369
2024-01-01 00:00:09.790,-0.543793,0.105422,7.474478,-0.574076,-0.396136,-0.090858
2024-01-01 00:00:09.800,-0.523599,0.421966,7.520803,-0.406578,-0.405024,-0.336777
2024-01-01 00:00:09.810,-0.547824,0.481628,8.081354,-0.402663,-0.217361,-0.204452
2024-01-01 00:00:09.820,-0.694089,0.688435,7.607303,-0.267203,-0.27225,-0.068564
2024-01-01 00:00:09.830,-0.561203,0.199866,7.450265,-0.288149,-0.02186,-0.187231
2024-01-01 00:00:09.840,-0.531655,0.387316,7.266168,-0.446713,0.029421,-0.207274
2024-01-01 00:00:09.850,-0.644366,0.13072,7.422776,-0.335906,-0.247401,-0.074048
2024-01-01 00:00:09.860,-0.297566,0.468201,7.213287,-0.317703,-0.069014,-0.204653
2024-01-01 00:00:09.870,-0.343856,0.356075,8.109501,-0.469769,-0.095692,-0.226104
2024-01-01 00:00:09.880,-0.445463,0.671433,7.624191,-0.357112,0.072107,-0.097738
2024-01-01 00:00:09.890,-0.384262,0.365093,7.678087,-0.313919,0.228841,-0.125345
2024-01-01 00:00:09.900,-0.329851,0.271388,7.921313,-0.030741,0.189637,-0.200882
2024-01-01 00:00:09.910,-0.566162,0.432148,8.114556,-0.160542,0.189789,-0.040802
2024-01-01 00:00:09.920,-0.31614,0.264772,8.226869,-0.084242,0.45528,-0.044692
2024-01-01 00:00:09.930,-0.332776,0.603577,8.390575,-0.323229,0.057759,-0.100477
2024-01-01 00:00:09.940,-0.334832,0.275697,8.109982,0.020656,0.513808,-0.084632
2024-01-01 00:00:09.950,-0.211421,0.5354,8.350744,0.054596,0.326694,-0.013137
2024-01-01 00:00:09.960,0.07552,0.289518,8.785075,-0.319917,0.404523,0.055171
2024-01-01 00:00:09.970,-0.025391,0.50566,8.63664,-0.143091,0.367497,-0.05185
2024-01-01 00:00:09.980,-0.132614,0.744897,8.948821,0.022879,0.627606,0.034069
2024-01-01 00:00:09.990,0.043051,0.592908,9.235145,0.062664,0.301073,0.037885
2024-01-01 00:00:10.000,0.176477,0.44634,9.497845,-0.076531,0.451274,0.072789
2024-01-01 00:00:10.010,0.145162,0.545599,8.981526,-0.017114,0.511144,0.012918
2024-01-01 00:00:10.020,0.066967,0.550151,9.728138,-0.037508,0.250109,-0.055897
2024-01-01 00:00:10.030,0.007704,0.602613,9.612971,0.062014,0.326236,-0.012618
2024-01-01 00:00:10.040,0.194534,0.37905,9.968005,0.206946,0.409691,0.05907
2024-01-01 00:00:10.050,0.183227,0.610626,10.102257,-0.014806,0.309624,0.184337
2024-01-01 00:00:10.060,0.268511,0.210712,10.423405,0.212148,0.304467,0.007303
2024-01-01 00:00:10.070,0.26217,0.454653,10.469098,0.012456,0.344507,0.117511
2024-01-01 00:00:10.080,0.336508,0.465935,10.572006,0.018606,0.446516,0.033916
2024-01-01 00:00:10.090,0.170663,0.59411,10.695668,0.232455,0.307534,0.075949
2024-01-01 00:00:10.100,0.416992,0.513713,10.501205,0.258578,0.456292,0.195205
2024-01-01 00:00:10.110,0.306282,0.33453,10.523738,0.263638,0.183613,0.141878
2024-01-01 00:00:10.120,0.554887,0.376521,10.814478,0.016879,0.127946,-0.011916
2024-01-01 00:00:10.130,0.246028,0.509421,10.852694,0.131932,0.482677,0.048125
2024-01-01 00:00:10.140,0.559479,0.466297,10.658231,0.299424,0.144546,0.20083
2024-01-01 00:00:10.150,0.396874,0.395856,10.894596,0.218199,0.036977,0.117957
2024-01-01 00:00:10.160,0.316413,0.396592,10.834268,0.096633,-0.045019,0.020831
2024-01-01 00:00:10.170,0.357446,0.526163,10.670703,0.292434,0.261899,0.053202
2024-01-01 00:00:10.180,0.397441,0.368235,11.239215,0.163299,0.060075,0.180817
2024-01-01 00:00:10.190,0.506567,0.406944,10.953911,0.475724,0.038188,0.209744
2024-01-01 00:00:10.200,0.53758,0.664503,11.466769,0.456718,0.016762,0.137097
2024-01-01 00:00:10.210,0.424529,0.219321,10.553591,0.354419,0.12446,0.338989
2024-01-01 00:00:10.220,0.508322,0.15347,10.817006,0.45546,-0.051612,0.212002
2024-01-01 00:00:10.230,0.7855,0.454745,10.95148,0.309734,0.218404,0.131501
2024-01-01 00:00:10.240,0.752206,0.263815,11.205738,0.403224,-0.079306,0.090429
2024-01-01 00:00:10.250,0.613001,0.291138,10.990404,0.497693,9.3e-05,0.082193
2024-01-01 00:00:10.260,0.580189,0.219219,10.928534,0.358391,-0.061971,0.191299
2024-01-01 00:00:10.270,0.604246,0.264993,10.520929,0.30643,-0.1934,0.129424
2024-01-01 00:00:10.280,0.676886,0.470807,10.457047,0.140167,-0.288873,0.30626
2024-01-01 00:00:10.290,0.493138,0.357675,10.762458,0.341952,-0.206838,0.293269
2024-01-01 00:00:10.300,0.59677,0.346973,10.268712,0.457471,-0.212372,0.229975
2024-01-01 00:00:10.310,0.438364,0.055318,10.397423,0.478387,-0.367735,0.088136
2024-01-01 00:00:10.320,0.696581,0.068584,10.569446,0.431195,-0.302897,0.131558
2024-01-01 00:00:10.330,0.735546,-0.152789,10.106096,0.310977,-0.196611,0.288421
2024-01-01 00:00:10.340,0.608224,0.071701,10.65461,0.143471,-0.116806,0.145299
2024-01-01 00:00:10.350,0.862513,0.26433,10.455509,0.325508,-0.280956,0.282238
2024-01-01 00:00:10.360,0.533066,0.192057,9.648144,0.35214,-0.17617,0.232299
2024-01-01 00:00:10.370,0.510042,0.083765,9.695182,0.354315,-0.489297,0.200071
2024-01-01 00:00:10.380,0.717388,0.087846,9.240515,0.468772,-0.341395,0.141046
2024-01-01 00:00:10.390,0.819865,-0.012091,9.49703,0.634974,-0.274558,0.190807
2024-01-01 00:00:10.400,0.89911,0.075105,9.762667,0.413132,-0.549962,0.214326
2024-01-01 00:00:10.410,0.643862,0.12233,9.344317,0.37338,-0.505517,0.282297
2024-01-01 00:00:10.420,0.82932,-0.183632,9.438701,0.368824,-0.241137,0.129106
2024-01-01 00:00:10.430,0.695266,0.026068,8.818288,0.414861,-0.566721,0.178942
2024-01-01 00:00:10.440,0.67824,0.081851,9.274064,0.300008,-0.608251,0.203287
2024-01-01 00:00:10.450,0.803123,-0.099963,8.812488,0.412757,-0.259159,0.252181
2024-01-01 00:00:10.460,0.772554,0.01389,8.832662,0.450826,-0.291729,0.125687
2024-01-01 00:00:10.470,0.501367,0.247615,8.687068,0.419753,-0.37397,0.09197
2024-01-01 00:00:10.480,0.86305,-0.122492,8.276022,0.446828,-0.419504,0.249879
2024-01-01 00:00:10.490,0.845884,-0.082454,8.19284,0.440777,-0.452612,0.072928
2024-01-01 00:00:10.500,0.5987,-0.237723,8.614448,0.172382,-0.349975,0.295303
2024-01-01 00:00:10.510,0.713853,-0.146711,8.368405,0.457199,-0.17599,0.177913
2024-01-01 00:00:10.520,0.717333,-0.132307,8.432656,0.295506,-0.316731,0.064212
2024-01-01 00:00:10.530,0.680138,-0.182985,8.158652,0.239275,-0.06326,0.146954
2024-01-01 00:00:10.540,0.572757,-0.347279,8.026935,0.232491,-0.407247,0.212842
2024-01-01 00:00:10.550,0.547277,-0.218398,7.480203,0.410809,-0.276445,0.136776
2024-01-01 00:00:10.560,0.613039,-0.085618,7.77188,0.325351,-0.291966,0.177633
2024-01-01 00:00:10.570,0.744239,-0.224815,7.768026,0.143027,-0.349203,0.231638
2024-01-01 00:00:10.580,0.655338,-0.180407,8.206531,0.394568,-0.207967,0.152426
2024-01-01 00:00:10.590,0.531433,-0.341084,7.841662,0.156337,-0.109108,0.08958
2024-01-01 00:00:10.600,0.653538,-0.239031,8.014152,0.337312,-0.065016,0.136348
2024-01-01 00:00:10.610,0.203383,-0.311441,7.748496,0.340167,0.164482,0.268961
2024-01-01 00:00:10.620,0.6666,-0.474533,7.399187,0.408411,-0.007768,0.285876
2024-01-01 00:00:10.630,0.302812,-0.337188,7.593241,0.506132,0.107321,-0.015429
2024-01-01 00:00:10.640,0.450227,-0.508896,7.619078,0.118365,0.01021,0.228345
2024-01-01 00:00:10.650,0.340838,-0.479795,7.330432,0.265245,0.236607,0.155783
2024-01-01 00:00:10.660,0.300677,-0.394545,7.483432,0.227433,0.355826,0.204215
2024-01-01 00:00:10.670,0.575565,-0.394449,7.551426,0.301344,0.164149,0.080608
2024-01-01 00:00:10.680,0.359782,-0.585102,8.036519,0.263541,0.013167,-0.022631
2024-01-01 00:00:10.690,0.436568,-0.327597,7.155909,0.183402,0.097585,0.159613
2024-01-01 00:00:10.700,0.367907,-0.396506,8.02704,0.160542,0.227551,0.031447
2024-01-01 00:00:10.710,0.408831,-0.56016,7.549126,0.066932,0.277735,-0.01061
2024-01-01 00:00:10.720,0.338381,-0.669909,7.505981,0.306636,0.334805,-0.011426
2024-01-01 00:00:10.730,0.152337,-0.511941,8.217245,0.230131,0.332907,0.135586
2024-01-01 00:00:10.740,0.40257,-0.556555,8.185684,0.271857,0.303718,0.092018
2024-01-01 00:00:10.750,0.200108,-0.497278,8.403545,0.110958,0.250104,0.1367
2024-01-01 00:00:10.760,0.048562,-0.561556,8.383586,0.055666,0.396399,0.120769
2024-01-01 00:00:10.770,0.159654,-0.765307,8.797654,-0.00881,0.590803,0.026619
2024-01-01 00:00:10.780,0.366512,-0.576739,8.526908,0.149596,0.50856,0.047625
2024-01-01 00:00:10.790,0.26359,-0.571824,8.457333,-0.032453,0.466221,0.005246
2024-01-01 00:00:10.800,0.09465,-0.463404,8.695513,0.299833,0.539331,0.02217
2024-01-01 00:00:10.810,0.069319,-0.626796,9.037472,-0.093357,0.382748,-0.0456
2024-01-01 00:00:10.820,0.047226,-0.34441,8.651451,0.08188,0.37548,0.055759
2024-01-01 00:00:10.830,0.309509,-0.777352,8.805237,0.222479,0.353588,0.103238
2024-01-01 00:00:10.840,0.080527,-0.391984,9.014451,0.091716,0.432755,-0.055416
2024-01-01 00:00:10.850,0.060649,-0.576872,8.689932,0.026249,0.399209,0.105085
2024-01-01 00:00:10.860,0.098708,-0.446501,9.415514,-0.130462,0.593852,0.00196
2024-01-01 00:00:10.870,-0.034687,-0.538167,9.094868,-0.202008,0.385592,0.001189
2024-01-01 00:00:10.880,-0.132652,-0.407433,9.761367,0.034368,0.334726,-0.164973
2024-01-01 00:00:10.890,-0.163046,-0.585454,10.140228,0.101033,0.647374,-0.184433
2024-01-01 00:00:10.900,-0.185571,-0.663966,9.972466,-0.153793,0.338305,-0.039036
2024-01-01 00:00:10.910,-0.218406,-0.353223,10.668692,-0.258938,0.384356,0.002053
2024-01-01 00:00:10.920,-0.162937,-0.527269,10.030057,-0.437982,0.389131,-0.125211
2024-01-01 00:00:10.930,-0.279576,-0.475479,10.825047,-0.281011,0.163559,0.051948
2024-01-01 00:00:10.940,-0.232585,-0.340793,10.812749,-0.196783,0.409586,-0.032777
2024-01-01 00:00:10.950,-0.363911,-0.598216,10.314963,-0.01052,0.295989,-0.173874
2024-01-01 00:00:10.960,-0.377441,-0.386907,11.503741,-0.140297,0.362095,-0.108068
2024-01-01 00:00:10.970,-0.658144,-0.511751,10.87325,-0.202452,0.04702,0.078623
2024-01-01 00:00:10.980,-0.338617,-0.438089,10.713268,-0.304344,0.092305,-0.22757
2024-01-01 00:00:10.990,-0.435859,-0.393543,10.604105,-0.342801,0.036045,-0.094149
2024-01-01 00:00:11.000,-0.385094,-0.561014,10.903613,-0.119811,0.013523,-0.170064
2024-01-01 00:00:11.010,-0.878296,-0.452068,10.908977,-0.279194,-0.241945,-0.09509
2024-01-01 00:00:11.020,-0.304426,-0.173014,10.928386,-0.569473,-0.102523,-0.057198
2024-01-01 00:00:11.030,-0.594389,-0.204321,10.770318,-0.410904,-0.334032,-0.195938
2024-01-01 00:00:11.040,-0.465517,-0.292763,10.925962,-0.444985,-0.16492,-0.081487
2024-01-01 00:00:11.050,-0.742339,-0.229792,10.575415,-0.418437,-0.50591,0.001253
2024-01-01 00:00:11.060,-0.561201,-0.267212,10.076179,-0.295156,-0.512186,-0.17605
2024-01-01 00:00:11.070,-0.776408,-0.041349,10.394465,-0.384321,-0.227789,-0.122923
2024-01-01 00:00:11.080,-0.738149,-0.199799,9.69766,-0.388251,-0.423715,-0.236749
2024-01-01 00:00:11.090,-0.444906,-0.119023,10.223253,-0.227863,-0.504388,-0.191199
2024-01-01 00:00:11.100,-0.706725,0.020037,9.724692,-0.474343,-0.256431,-0.209518
2024-01-01 00:00:11.110,-0.664936,-0.181059,9.83649,-0.171169,-0.387763,-0.133682
2024-01-01 00:00:11.120,-0.591716,0.129258,9.943826,-0.478342,-0.335411,-0.102519
2024-01-01 00:00:11.130,-0.639633,-0.211299,9.193484,-0.388791,-0.467675,-0.20852
2024-01-01 00:00:11.140,-0.681942,0.19815,9.509287,-0.43374,-0.128425,-0.077308
2024-01-01 00:00:11.150,-0.654957,-0.0119,8.94912,-0.384477,-0.519337,-0.07724
2024-01-01 00:00:11.160,-0.40699,0.033826,9.311709,-0.34402,-0.228871,-0.130937
2024-01-01 00:00:11.170,-0.696859,-0.133912,8.602737,-0.342194,-0.431693,-0.238409
2024-01-01 00:00:11.180,-0.658271,0.067972,8.311358,-0.480319,-0.60386,-0.243919
2024-01-01 00:00:11.190,-0.546719,0.027058,8.529672,-0.519206,-0.323469,-0.257218
2024-01-01 00:00:11.200,-0.528495,0.107745,8.0962,-0.077424,-0.315121,-0.112969
2024-01-01 00:00:11.210,-0.505076,0.192467,7.854818,-0.428089,-0.446268,-0.281947
2024-01-01 00:00:11.220,-0.555275,0.35153,7.820195,-0.277193,-0.394123,-0.126402
2024-01-01 00:00:11.230,-0.751576,0.288442,7.818936,-0.544011,-0.246342,-0.262036
2024-01-01 00:00:11.240,-0.399038,0.326589,8.073347,-0.373582,-0.158389,-0.104131
2024-01-01 00:00:11.250,-0.711446,0.183467,7.180393,-0.343198,-0.451397,-0.16259
2024-01-01 00:00:11.260,-0.514669,0.233548,7.615087,-0.258111,0.018771,-0.050733
2024-01-01 00:00:11.270,-0.616932,0.57837,7.730896,-0.627505,-0.11833,-0.059089
2024-01-01 00:00:11.280,-0.507957,0.296486,7.608754,-0.265926,-0.169473,-0.028126
2024-01-01 00:00:11.290,-0.433139,0.60448,7.894122,-0.408021,0.152709,-0.01816
2024-01-01 00:00:11.300,-0.404928,0.396365,7.574799,-0.214502,0.08591,-0.115221
2024-01-01 00:00:11.310,-0.362419,0.444318,7.59412,-0.360388,0.282574,-0.210718
2024-01-01 00:00:11.320,-0.187715,0.589655,7.85479,-0.320578,0.235428,-0.193162
2024-01-01 00:00:11.330,-0.294093,0.629612,7.816758,-0.231988,0.226721,-0.266524
2024-01-01 00:00:11.340,-0.343919,0.478018,7.797293,-0.306063,0.249861,-0.176585
2024-01-01 00:00:11.350,-0.164082,0.457572,8.143396,-0.216934,0.36416,-0.074429
2024-01-01 00:00:11.360,-0.101342,0.508772,7.985747,-0.282678,0.290954,-0.114509
2024-01-01 00:00:11.370,-0.354959,0.565799,8.144034,-0.338635,0.268497,-0.073738
2024-01-01 00:00:11.380,-0.098898,0.640375,8.324419,0.024677,0.469741,-0.009322
2024-01-01 00:00:11.390,-0.04887,0.540487,8.963987,-0.231532,0.400166,-0.062328
2024-01-01 00:00:11.400,-0.13074,0.619174,7.997434,-0.075746,0.43744,-0.116898
2024-01-01 00:00:11.410,0.108318,0.744792,9.084082,0.057909,0.574807,-0.020478
2024-01-01 00:00:11.420,-0.036337,0.595569,9.179567,-0.084268,0.435718,-0.077116
2024-01-01 00:00:11.430,0.028512,0.587297,8.905063,-0.091338,0.451472,-0.017822
2024-01-01 00:00:11.440,0.018319,0.366873,9.526992,0.049485,0.375236,0.11859
2024-01-01 00:00:11.450,0.06655,0.231959,9.691758,0.171113,0.494005,-0.00316
2024-01-01 00:00:11.460,-0.041366,0.592021,9.841809,-0.088783,0.47704,0.167444
2024-01-01 00:00:11.470,-0.057235,0.531073,9.150687,0.048023,0.53356,0.147551
2024-01-01 00:00:11.480,0.332141,0.476985,10.27151,-0.127442,0.344092,-0.006116
2024-01-01 00:00:11.490,0.064206,0.563565,9.858146,0.047582,0.344546,-0.041507
2024-01-01 00:00:11.500,0.071691,0.521958,10.322684,0.113052,0.47829,0.050269
2024-01-01 00:00:11.510,-0.043188,0.658693,10.439984,0.020427,0.395189,0.153757
2024-01-01 00:00:11.520,0.162815,0.527142,10.133868,0.082013,0.235906,0.029211
2024-01-01 00:00:11.530,0.10467,0.419933,10.610609,-0.01845,0.479316,0.147916
2024-01-01 00:00:11.540,0.484078,0.620454,10.435201,0.17327,0.094858,0.178685
2024-01-01 00:00:11.550,0.431424,0.466975,10.092977,0.303967,0.367324,0.02672
2024-01-01 00:00:11.560,0.250461,0.546948,10.974742,0.058651,0.094454,0.04107
2024-01-01 00:00:11.570,0.625676,0.416557,10.553385,0.128356,0.444319,0.158551
2024-01-01 00:00:11.580,0.495063,0.385313,10.589869,0.275878,0.003246,0.119934
2024-01-01 00:00:11.590,0.359632,0.462216,10.750776,0.373229,0.296429,0.059004
2024-01-01 00:00:11.600,0.119508,0.441871,10.959098,0.060495,0.117073,0.091665
2024-01-01 00:00:11.610,0.714611,0.485535,10.907452,0.231002,0.050905,0.119986
2024-01-01 00:00:11.620,0.292619,0.382767,11.080585,0.296471,0.084663,0.006059
2024-01-01 00:00:11.630,0.280972,0.181132,10.621446,0.261136,0.105426,0.197943
2024-01-01 00:00:11.640,0.619538,0.335513,10.774356,-0.013313,-0.111906,0.103656
2024-01-01 00:00:11.650,0.807341,0.468135,10.92545,0.354171,-0.134231,-0.075677
2024-01-01 00:00:11.660,0.697734,0.322121,11.41431,0.486104,0.008853,0.149982
2024-01-01 00:00:11.670,0.615625,0.312688,10.887746,0.327117,-0.306372,0.097233
2024-01-01 00:00:11.680,0.634926,0.444607,11.154965,0.198299,-0.203444,0.296122
2024-01-01 00:00:11.690,0.680807,0.224355,10.852031,0.268937,0.200416,0.118421
2024-01-01 00:00:11.700,0.683532,0.107789,10.671706,0.550939,-0.310873,0.081463
2024-01-01 00:00:11.710,0.639471,0.256389,10.672931,0.455326,-0.086174,0.2137
2024-01-01 00:00:11.720,0.630686,0.199933,10.626573,0.43005,-0.32222,0.123788
2024-01-01 00:00:11.730,0.622293,0.124107,10.746083,0.402658,-0.217462,0.117588
2024-01-01 00:00:11.740,0.550105,0.200711,10.858143,0.28671,-0.225169,0.223783
2024-01-01 00:00:11.750,0.616815,0.262138,10.516987,0.347643,-0.191729,0.102619
2024-01-01 00:00:11.760,0.456382,0.183171,10.630139,0.367527,-0.372988,0.071857
2024-01-01 00:00:11.770,0.65589,0.202005,9.992707,0.447486,-0.13017,0.328849
2024-01-01 00:00:11.780,0.556316,0.363435,10.025547,0.566755,-0.457452,0.239202
2024-01-01 00:00:11.790,0.548866,0.085143,9.838757,0.523513,-0.374443,0.17352
2024-01-01 00:00:11.800,0.708318,0.139983,9.984989,0.222092,-0.38677,0.195931
2024-01-01 00:00:11.810,0.858282,0.025626,9.699709,0.421875,-0.562256,0.237967
2024-01-01 00:00:11.820,0.805021,-0.034799,9.852117,0.485454,-0.471043,0.276388
2024-01-01 00:00:11.830,0.509011,-0.023481,9.314946,0.472818,-0.424128,0.138799
2024-01-01 00:00:11.840,0.580426,-0.030862,9.434931,0.324024,-0.499751,0.229058
2024-01-01 00:00:11.850,0.812845,0.049571,9.471483,0.749666,-0.156966,0.15945
2024-01-01 00:00:11.860,0.581883,0.268159,8.658823,0.246625,-0.550074,0.184819
2024-01-01 00:00:11.870,0.671715,-0.119801,9.581394,0.269258,-0.305055,0.212476
2024-01-01 00:00:11.880,0.762627,-0.10397,8.857158,0.426101,-0.338557,0.1985
2024-01-01 00:00:11.890,0.577433,-0.081577,8.300431,0.650379,-0.43537,0.257027
2024-01-01 00:00:11.900,0.702361,-0.046434,8.727396,0.29378,-0.527575,0.236029
2024-01-01 00:00:11.910,0.524788,-0.082105,8.58049,0.359455,-0.503707,0.075024
2024-01-01 00:00:11.920,0.60694,0.020711,8.439608,0.517335,-0.459226,0.085404
2024-01-01 00:00:11.930,0.710799,-0.444016,8.600132,0.3821,-0.594779,0.162544
2024-01-01 00:00:11.940,0.473683,-0.458545,8.436327,0.339758,-0.482281,0.336245
2024-01-01 00:00:11.950,0.709223,-0.250651,8.226497,0.442942,-0.519193,0.119406
2024-01-01 00:00:11.960,0.644651,-0.078245,8.173084,0.402421,-0.157387,0.168201
2024-01-01 00:00:11.970,0.703078,-0.416292,7.949419,0.487527,-0.220558,0.139029
2024-01-01 00:00:11.980,0.652565,-0.607517,8.341249,0.512516,-0.174754,0.134446
2024-01-01 00:00:11.990,0.777467,-0.195915,7.456768,0.387566,-0.171263,0.189622
2024-01-01 00:00:12.000,0.616047,-0.252717,7.798375,0.378448,-0.193438,0.283782
2024-01-01 00:00:12.010,0.535933,-0.429901,7.724657,0.361386,-0.008596,0.204324
2024-01-01 00:00:12.020,0.58779,-0.434059,7.864998,0.386189,-0.226585,0.099464
2024-01-01 00:00:12.030,0.623192,-0.448458,7.412583,0.325475,-0.109085,0.379686
2024-01-01 00:00:12.040,0.547992,-0.334672,7.158292,0.309715,-0.000175,0.16118
2024-01-01 00:00:12.050,0.530403,-0.438474,7.613032,0.443899,-0.215821,0.103974
2024-01-01 00:00:12.060,0.42399,-0.318921,7.632813,0.47235,0.347169,0.258176
2024-01-01 00:00:12.070,0.410695,-0.735147,7.932708,0.099232,0.011991,0.102544
2024-01-01 00:00:12.080,0.303285,-0.50927,7.249655,0.270687,0.058541,0.267775
2024-01-01 00:00:12.090,0.662268,-0.554883,7.871954,0.175824,0.225044,0.059582
2024-01-01 00:00:12.100,0.283168,-0.463263,8.200182,0.209787,0.21633,0.237954
2024-01-01 00:00:12.110,0.328815,-0.509231,7.547812,0.28371,0.14285,0.133788
2024-01-01 00:00:12.120,0.304733,-0.360491,7.362136,0.303728,0.184897,0.214982
2024-01-01 00:00:12.130,0.476785,-0.690305,7.634213,0.197627,0.018876,0.257683
2024-01-01 00:00:12.140,0.311957,-0.472051,7.798734,-0.031115,0.161617,0.008634
2024-01-01 00:00:12.150,0.474569,-0.420193,8.003329,0.069817,0.318251,0.194873
2024-01-01 00:00:12.160,0.221074,-0.273424,7.789193,0.28009,0.335869,-0.026457
2024-01-01 00:00:12.170,0.312019,-0.562394,8.407612,-0.169686,0.454038,-0.004192
2024-01-01 00:00:12.180,0.15457,-0.473331,7.828621,0.288098,0.316282,0.008531
2024-01-01 00:00:12.190,0.48816,-0.735724,7.76709,0.1944,0.185734,0.106217
2024-01-01 00:00:12.200,0.06385,-0.812592,8.578893,0.275862,0.49859,0.061602
2024-01-01 00:00:12.210,0.218883,-0.429774,7.839032,0.080003,0.561688,0.038545
2024-01-01 00:00:12.220,0.232856,-0.536691,8.466708,-0.157767,0.512629,0.0565
2024-01-01 00:00:12.230,0.181346,-0.398758,9.411203,0.126895,0.398511,0.084929
2024-01-01 00:00:12.240,0.084166,-0.708418,8.74619,0.213759,0.554532,0.08386
2024-01-01 00:00:12.250,0.06539,-0.48392,8.589173,0.157234,0.849428,0.110667
2024-01-01 00:00:12.260,0.060684,-0.324015,8.977279,-0.04785,0.458176,0.161439
2024-01-01 00:00:12.270,0.012171,-0.499136,9.102634,0.027446,0.290959,0.006808
2024-01-01 00:00:12.280,0.119821,-0.516801,9.27998,-0.061566,0.379614,-0.0405
2024-01-01 00:00:12.290,0.23301,-0.548389,9.582057,-0.116742,0.523146,0.039868
2024-01-01 00:00:12.300,-0.13754,-0.735698,9.341586,0.07428,0.248258,-0.111724
2024-01-01 00:00:12.310,-0.273192,-0.380645,10.203997,-0.205884,0.44858,-0.085387
2024-01-01 00:00:12.320,-0.157256,-0.611096,10.017825,-0.191065,0.456133,0.038047
2024-01-01 00:00:12.330,0.125501,-0.470107,10.304262,-0.237662,0.571987,-0.06252
2024-01-01 00:00:12.340,-0.31735,-0.709458,10.121119,-0.305064,0.517589,-0.159772
2024-01-01 00:00:12.350,-0.060393,-0.653099,10.743039,-0.129337,0.432353,-0.192638
2024-01-01 00:00:12.360,-0.091163,-0.327476,10.48643,-0.027755,0.033348,-0.07967
2024-01-01 00:00:12.370,-0.393434,-0.527975,10.733731,-0.209044,0.364122,-0.002078
2024-01-01 00:00:12.380,-0.292252,-0.297047,10.527744,-0.386707,0.295919,-0.012725
2024-01-01 00:00:12.390,-0.197559,-0.464544,10.590323,-0.123759,0.197079,-0.103406
2024-01-01 00:00:12.400,-0.469711,-0.658524,11.071052,-0.040125,-0.088163,0.039508
2024-01-01 00:00:12.410,-0.478611,-0.311465,10.827734,-0.337081,-0.022096,-0.138152
2024-01-01 00:00:12.420,-0.552576,-0.469052,10.744528,-0.333297,-0.118107,-0.149021
2024-01-01 00:00:12.430,-0.631677,-0.292969,10.796013,-0.229496,-0.26936,-0.351082
2024-01-01 00:00:12.440,-0.613411,-0.351194,11.109865,-0.111374,-0.077047,-0.188788
2024-01-01 00:00:12.450,-0.706342,-0.51573,10.735939,-0.382077,-0.220646,-0.091687
2024-01-01 00:00:12.460,-0.577658,-0.286178,10.802117,-0.492322,0.143428,-0.041097
2024-01-01 00:00:12.470,-0.694666,-0.016758,10.754626,-0.268384,-0.236488,-0.238496
2024-01-01 00:00:12.480,-0.592914,-0.194711,10.172852,-0.258951,-0.102998,-0.140439
2024-01-01 00:00:12.490,-0.824498,-0.233568,10.168902,-0.363716,-0.485433,-0.098476
2024-01-01 00:00:12.500,-0.612978,-0.069737,10.489816,-0.439938,-0.396053,-0.185584
2024-01-01 00:00:12.510,-0.56558,-0.145008,10.076706,-0.261019,-0.352097,-0.372835
2024-01-01 00:00:12.520,-0.915759,-0.116139,10.368262,-0.323213,-0.49959,-0.173506
2024-01-01 00:00:12.530,-0.640485,-0.242847,10.1787,-0.483853,-0.463442,-0.134906
2024-01-01 00:00:12.540,-0.54484,-0.05402,9.941524,-0.389629,-0.456109,-0.273554
2024-01-01 00:00:12.550,-0.842014,0.07219,10.035345,-0.560409,-0.470004,-0.219434
2024-01-01 00:00:12.560,-0.498737,-0.122215,9.374428,-0.317376,-0.22596,-0.292281
2024-01-01 00:00:12.570,-0.649637,0.179293,9.370584,-0.431422,-0.404405,-0.405589
2024-01-01 00:00:12.580,-0.782878,0.027566,8.876052,-0.4513,-0.388033,-0.117347
2024-01-01 00:00:12.590,-0.701215,-0.037862,9.451907,-0.400815,-0.371212,-0.198735
2024-01-01 00:00:12.600,-0.621669,0.218278,9.156476,-0.388688,-0.347582,-0.068948
2024-01-01 00:00:12.610,-0.671611,0.093742,8.492535,-0.281598,-0.411081,-0.125909
2024-01-01 00:00:12.620,-0.606086,0.248505,8.424521,-0.312347,-0.414814,-0.219976
2024-01-01 00:00:12.630,-0.769194,0.151083,8.517274,-0.395177,-0.326947,-0.194858
2024-01-01 00:00:12.640,-0.624375,0.207083,8.003324,-0.276759,-0.174596,-0.138905
2024-01-01 00:00:12.650,-0.79838,0.30101,7.753356,-0.311188,-0.140924,-0.102288
2024-01-01 00:00:12.660,-0.624215,0.30348,8.029638,-0.400259,-0.264243,-0.14872
2024-01-01 00:00:12.670,-0.699624,0.055085,7.741889,-0.352769,-0.099732,-0.080454
2024-01-01 00:00:12.680,-0.657918,0.185086,7.697753,-0.343304,-0.169383,-0.186492
2024-01-01 00:00:12.690,-0.398101,0.455284,7.392595,-0.251615,-0.094362,-0.235895
2024-01-01 00:00:12.700,-0.390599,0.350979,7.140953,-0.342075,-0.106454,-0.154201
2024-01-01 00:00:12.710,-0.422008,0.325959,7.619036,-0.329766,-0.022033,-0.125044
2024-01-01 00:00:12.720,-0.598232,0.246573,7.796416,-0.030695,0.210122,-0.229596
2024-01-01 00:00:12.730,-0.475762,0.299591,7.544323,-0.137399,0.109057,-0.232021
2024-01-01 00:00:12.740,-0.261535,0.204803,8.010535,-0.323905,0.161821,-0.080525
2024-01-01 00:00:12.750,-0.358184,0.452171,7.545542,-0.145881,0.017781,-0.139706
2024-01-01 00:00:12.760,-0.063819,0.408015,7.546533,-0.181306,0.197884,-0.111021
2024-01-01 00:00:12.770,-0.260855,0.377888,7.899612,-0.129044,0.246742,-0.116791
2024-01-01 00:00:12.780,-0.24999,0.498262,8.018221,-0.139539,0.213577,0.043638
2024-01-01 00:00:12.790,-0.274286,0.561139,8.36857,0.007219,0.349265,0.033172
2024-01-01 00:00:12.800,-0.184607,0.778109,8.132645,-0.073173,0.324564,-0.156312
2024-01-01 00:00:12.810,-0.181762,0.353367,8.830002,-0.100859,0.41052,-0.089328
2024-01-01 00:00:12.820,-0.040831,0.680171,9.15063,0.053175,0.435511,0.032056
2024-01-01 00:00:12.830,0.027042,0.662432,8.827303,-0.022156,0.321163,0.02308
2024-01-01 00:00:12.840,-0.143774,0.455134,9.332816,-0.013683,0.397663,-0.017447
2024-01-01 00:00:12.850,-0.170747,0.57432,8.94246,0.031398,0.459063,-0.094151
2024-01-01 00:00:12.860,-0.202015,0.494895,9.617806,-0.000759,0.591499,-0.049366
2024-01-01 00:00:12.870,0.104927,0.571197,9.734956,0.026232,0.477256,-0.028779
2024-01-01 00:00:12.880,-0.062857,0.728374,9.811987,-0.030662,0.361684,0.04203
2024-01-01 00:00:12.890,-0.163314,0.617581,9.713422,-0.035836,0.481293,0.16345
2024-01-01 00:00:12.900,0.16702,0.602838,9.097477,-0.051034,0.628285,-0.020553
2024-01-01 00:00:12.910,0.444746,0.486336,9.791237,-0.083846,0.521075,-0.040487
2024-01-01 00:00:12.920,0.169858,0.355332,9.907103,-0.008088,0.462255,0.040052
2024-01-01 00:00:12.930,0.295976,0.503131,9.926612,0.090721,0.466973,0.138355
2024-01-01 00:00:12.940,0.229685,0.666959,10.304434,0.138012,0.534005,-0.052932
2024-01-01 00:00:12.950,0.232212,0.332222,10.26638,0.106918,0.469653,0.186027
2024-01-01 00:00:12.960,0.378252,0.381495,10.256243,-0.129563,0.386126,0.062798
2024-01-01 00:00:12.970,0.256655,0.515199,10.28251,0.355515,0.422179,0.024537
2024-01-01 00:00:12.980,0.346708,0.373157,10.446226,0.310161,0.138391,-0.038124
2024-01-01 00:00:12.990,0.375934,0.386821,10.976038,0.246251,0.060723,0.152902
2024-01-01 00:00:13.000,0.279416,0.421053,10.593248,0.434377,0.231357,0.089045
2024-01-01 00:00:13.010,0.500405,0.297337,10.684558,0.100636,0.191115,0.122616
2024-01-01 00:00:13.020,0.381625,0.333023,10.745558,0.456584,0.08699,0.04297
2024-01-01 00:00:13.030,0.332651,0.522431,10.982323,0.126083,0.219929,0.095427
2024-01-01 00:00:13.040,0.507872,0.268648,11.040677,0.282072,-0.1348,0.087785
2024-01-01 00:00:13.050,0.355229,0.220729,10.185533,0.111737,-0.007988,0.124251
2024-01-01 00:00:13.060,0.485358,0.323257,11.213124,0.277179,-0.034871,0.084143
2024-01-01 00:00:13.070,0.499167,0.472545,11.3187,0.332203,-0.206019,0.020197
2024-01-01 00:00:13.080,0.64818,0.346413,10.68982,0.277364,0.13677,0.366244
2024-01-01 00:00:13.090,0.591752,0.29913,10.692954,0.391259,-0.238407,0.043724
2024-01-01 00:00:13.100,0.547982,0.344562,10.79812,0.32673,-0.178205,0.171941
2024-01-01 00:00:13.110,0.664573,0.113657,10.687465,0.260991,-0.030369,0.020078
2024-01-01 00:00:13.120,0.747961,0.365975,10.889542,0.26406,-0.092775,0.006275
2024-01-01 00:00:13.130,0.661987,0.33568,10.295566,0.437338,-0.33334,0.17784
2024-01-01 00:00:13.140,0.609406,0.223218,10.443172,0.269073,-0.147442,0.18771
2024-01-01 00:00:13.150,0.46304,0.375347,11.040048,0.464397,-0.222315,0.278194
2024-01-01 00:00:13.160,0.504109,0.101295,10.34829,0.507824,-0.003492,0.212513
2024-01-01 00:00:13.170,0.605909,0.353585,10.809201,0.166918,-0.259828,0.171597
2024-01-01 00:00:13.180,0.579144,0.218123,10.498523,0.508686,-0.348436,0.110399
2024-01-01 00:00:13.190,0.638722,0.140276,9.862536,0.625055,-0.455673,0.308823
2024-01-01 00:00:13.200,0.67594,0.159114,10.373181,0.412608,-0.46171,0.265492
2024-01-01 00:00:13.210,0.73979,0.129247,10.079298,0.458306,-0.489,0.093501
2024-01-01 00:00:13.220,0.673943,0.268981,9.884652,0.514385,-0.240787,0.198009
2024-01-01 00:00:13.230,0.746042,-0.026391,9.945594,0.359892,-0.416396,0.207999
2024-01-01 00:00:13.240,0.699733,-0.008566,9.885492,0.4173,-0.361706,0.170061
2024-01-01 00:00:13.250,0.458344,0.187307,9.823488,0.239667,-0.2565,0.260434
2024-01-01 00:00:13.260,0.585149,-0.028585,9.818831,0.415419,-0.727545,0.26593
2024-01-01 00:00:13.270,0.68211,0.130815,9.502559,0.459431,-0.294995,0.18459
2024-01-01 00:00:13.280,0.554829,0.206525,8.932119,0.461935,-0.443332,0.177528
2024-01-01 00:00:13.290,0.771634,-0.065785,9.033032,0.527647,-0.396876,0.319815
2024-01-01 00:00:13.300,0.882043,0.044055,9.763205,0.306083,-0.545178,0.274157
2024-01-01 00:00:13.310,0.842376,-0.196239,9.085815,0.333873,-0.530677,0.204681
2024-01-01 00:00:13.320,0.667347,0.012761,9.376173,0.623438,-0.373327,0.067652
2024-01-01 00:00:13.330,0.867752,-0.073781,9.014428,0.375597,-0.135442,0.224338
2024-01-01 00:00:13.340,0.701683,-0.060722,8.610933,0.414771,-0.288535,0.25123
2024-01-01 00:00:13.350,0.637452,-0.214572,8.514561,0.379332,-0.242212,-0.026675
2024-01-01 00:00:13.360,0.597442,-0.355865,8.323202,0.284856,-0.400138,0.211878
2024-01-01 00:00:13.370,0.627,-0.115367,7.79602,0.57385,-0.430119,0.156178
2024-01-01 00:00:13.380,0.60807,-0.442351,8.13864,0.310762,-0.430863,0.169375
2024-01-01 00:00:13.390,0.665576,-0.251548,8.346505,0.233369,-0.373019,0.111731
2024-01-01 00:00:13.400,0.654002,-0.118961,7.81017,0.308616,-0.53633,0.169497
2024-01-01 00:00:13.410,0.623854,-0.227001,7.9863,0.116074,-0.350998,0.289499
2024-01-01 00:00:13.420,0.663837,-0.034016,8.02684,0.271219,-0.303842,0.138975
2024-01-01 00:00:13.430,0.741377,-0.162234,7.524924,0.225824,-0.228963,0.248246
2024-01-01 00:00:13.440,0.698736,-0.38076,7.586024,0.408257,-0.162314,0.102576
2024-01-01 00:00:13.450,0.392106,-0.315654,7.399268,0.245072,-0.103875,0.223641
2024-01-01 00:00:13.460,0.24856,-0.340827,7.411734,0.423697,-0.117614,0.158713
2024-01-01 00:00:13.470,0.651141,-0.540764,7.267732,0.475831,-0.153428,0.182168
2024-01-01 00:00:13.480,0.358264,-0.479039,7.345857,0.392192,-0.286639,0.149798
2024-01-01 00:00:13.490,0.477883,-0.448279,7.916246,0.262642,-0.087181,0.195574
2024-01-01 00:00:13.500,0.346328,-0.639619,7.332056,0.295072,-0.101848,-0.066338
2024-01-01 00:00:13.510,0.251736,-0.403326,7.601215,0.084415,0.103685,0.020121
2024-01-01 00:00:13.520,0.513552,-0.452117,7.461643,0.240276,0.189525,0.161531
2024-01-01 00:00:13.530,0.519676,-0.635611,7.908827,0.141649,0.22526,-0.041032
2024-01-01 00:00:13.540,0.33882,-0.39841,7.977497,0.316463,0.235082,0.074125
2024-01-01 00:00:13.550,0.075952,-0.372461,7.909975,0.529803,0.159066,0.106189
2024-01-01 00:00:13.560,0.299684,-0.441956,7.823159,0.268683,0.142354,0.038101
2024-01-01 00:00:13.570,0.390114,-0.518292,7.749662,-0.042881,0.144134,0.042703
2024-01-01 00:00:13.580,0.143032,-0.41799,7.578067,0.139796,0.080428,0.113299
2024-01-01 00:00:13.590,0.319478,-0.416239,8.437964,0.184684,0.406488,0.165736
2024-01-01 00:00:13.600,0.272211,-0.46921,7.84524,0.167082,0.291092,0.001623
2024-01-01 00:00:13.610,0.319768,-0.612605,8.29073,0.055304,0.185411,0.025496
2024-01-01 00:00:13.620,0.240471,-0.487322,8.48547,0.158647,0.256907,0.006105
2024-01-01 00:00:13.630,0.084917,-0.383219,8.183106,-0.033851,0.27125,-0.136086
2024-01-01 00:00:13.640,0.320568,-0.603727,8.687818,-0.012258,0.397633,0.061902
2024-01-01 00:00:13.650,0.133011,-0.285118,8.730227,0.164373,0.535641,0.118216
2024-01-01 00:00:13.660,0.123609,-0.603965,9.085898,-0.049373,0.37867,0.117585
2024-01-01 00:00:13.670,-0.010426,-0.540291,8.654561,0.122623,0.160749,-0.040642
2024-01-01 00:00:13.680,0.022917,-0.627438,8.571045,-0.120844,0.416658,-0.07839
2024-01-01 00:00:13.690,-0.055624,-0.521771,8.888728,0.240666,0.426563,0.016172
2024-01-01 00:00:13.700,0.004173,-0.758718,9.191219,-0.078669,0.421868,0.073464
2024-01-01 00:00:13.710,0.204305,-0.615524,9.279896,-0.027469,0.374702,0.012074
2024-01-01 00:00:13.720,-0.204204,-0.680175,9.35356,0.017059,0.473216,0.011837
2024-01-01 00:00:13.730,-0.27156,-0.53034,9.158878,-0.112375,0.446782,0.06908
2024-01-01 00:00:13.740,0.060487,-0.423055,9.933509,-0.049108,0.422282,-0.092289
2024-01-01 00:00:13.750,-0.178942,-0.459035,10.481967,-0.018856,0.456057,-0.061547
2024-01-01 00:00:13.760,-0.271417,-0.813701,10.269126,0.006057,0.331324,0.07616
2024-01-01 00:00:13.770,-0.103067,-0.274998,10.458737,-0.035223,0.29625,-0.080846
2024-01-01 00:00:13.780,-0.336567,-0.473986,10.590306,-0.171413,0.487705,-0.176785
2024-01-01 00:00:13.790,-0.080012,-0.590432,10.67285,-0.188529,0.35277,-0.139015
2024-01-01 00:00:13.800,-0.252118,-0.464725,10.917022,0.09134,0.344986,-0.170331
2024-01-01 00:00:13.810,-0.425345,-0.447304,10.876254,-0.095611,0.35002,-0.076226
2024-01-01 00:00:13.820,-0.140137,-0.531919,10.774206,-0.338627,0.220683,-0.18568
2024-01-01 00:00:13.830,-0.502711,-0.410231,10.709098,-0.23373,0.221755,-0.101182
2024-01-01 00:00:13.840,-0.370685,-0.487649,10.881653,-0.302924,-0.127729,-0.190238
2024-01-01 00:00:13.850,-0.452142,-0.442793,11.037877,-0.29513,0.036989,-0.309315
2024-01-01 00:00:13.860,-0.358693,-0.454948,10.875235,-0.441769,-0.058889,-0.122585
2024-01-01 00:00:13.870,-0.352809,-0.521713,11.007273,-0.358111,0.115353,-0.142463
2024-01-01 00:00:13.880,-0.560005,-0.308433,10.992742,-0.10481,-0.022619,-0.119678
2024-01-01 00:00:13.890,-0.676205,-0.230852,11.025899,-0.265251,-0.255939,-0.221209
2024-01-01 00:00:13.900,-0.550777,-0.213547,11.054128,-0.64521,-0.17972,-0.235499
2024-01-01 00:00:13.910,-0.705645,-0.150354,10.650947,-0.210747,-0.245791,-0.14626
2024-01-01 00:00:13.920,-0.399171,-0.182484,10.185943,-0.235403,-0.249636,-0.061558
2024-01-01 00:00:13.930,-0.638914,-0.257322,10.292909,-0.41757,-0.460984,-0.186335
2024-01-01 00:00:13.940,-0.711676,-0.064041,10.242973,-0.29555,-0.325994,-0.156844
2024-01-01 00:00:13.950,-0.656195,-0.29861,9.61404,-0.49076,-0.422585,-0.219543
2024-01-01 00:00:13.960,-0.848481,-0.214285,10.251347,-0.448902,-0.382547,-0.319726
2024-01-01 00:00:13.970,-0.809811,-0.192084,9.763189,-0.216298,-0.519569,-0.120668
2024-01-01 00:00:13.980,-0.553463,0.083282,9.640694,-0.431186,-0.513823,-0.126616
2024-01-01 00:00:13.990,-0.778526,0.097005,9.701051,-0.624196,-0.308365,-0.143052
2024-01-01 00:00:14.000,-0.825399,0.072591,9.015242,-0.407465,-0.575593,-0.21449
2024-01-01 00:00:14.010,-0.633326,0.172947,9.130451,-0.40813,-0.561488,-0.151585
2024-01-01 00:00:14.020,-0.551284,-0.031131,8.776937,-0.252521,-0.439728,-0.126662
2024-01-01 00:00:14.030,-0.601042,0.146057,8.581351,-0.391032,-0.510307,-0.066763
2024-01-01 00:00:14.040,-0.55946,0.118732,8.264939,-0.438582,-0.502978,-0.114914
2024-01-01 00:00:14.050,-0.759417,0.264501,8.714697,-0.256651,-0.358463,-0.185923
2024-01-01 00:00:14.060,-0.826813,0.177679,8.056353,-0.360474,-0.521494,-0.292145
2024-01-01 00:00:14.070,-0.461646,0.173364,8.190439,-0.456749,-0.427535,-0.170921
2024-01-01 00:00:14.080,-0.664197,0.311853,7.427206,-0.218815,-0.022076,-0.158181
2024-01-01 00:00:14.090,-0.637354,0.378725,8.087826,-0.323763,-0.172172,-0.116779
2024-01-01 00:00:14.100,-0.427813,0.219197,7.970485,-0.335189,-0.272892,-0.059459
2024-01-01 00:00:14.110,-0.498615,0.316977,7.665158,-0.301715,-0.086898,-0.169144
2024-01-01 00:00:14.120,-0.487112,0.221221,7.537002,-0.438091,-0.021126,0.013274
2024-01-01 00:00:14.130,-0.256837,0.071341,7.666814,-0.35854,0.079079,-0.288354
2024-01-01 00:00:14.140,-0.567116,0.416916,8.132552,-0.279509,-0.006067,-0.106422
2024-01-01 00:00:14.150,-0.350328,0.486493,7.133628,-0.28717,0.175702,-0.195787
2024-01-01 00:00:14.160,-0.425206,0.464187,7.804399,-0.094193,-0.137467,-0.27602
2024-01-01 00:00:14.170,-0.368889,0.216797,7.435398,-0.203123,0.027718,-0.130748
2024-01-01 00:00:14.180,-0.185563,0.425285,7.732031,-0.108257,0.219601,-0.221996
2024-01-01 00:00:14.190,-0.274783,0.216415,7.767155,-0.190714,0.282538,-0.108835
2024-01-01 00:00:14.200,-0.236856,0.660751,7.831455,-0.045503,0.173676,-0.083347
2024-01-01 00:00:14.210,-0.137568,0.378329,8.061298,-0.10445,0.350908,0.013407
2024-01-01 00:00:14.220,-0.274075,0.670035,7.920208,-0.129978,0.277739,-0.186401
2024-01-01 00:00:14.230,-0.294301,0.642052,8.613649,-0.11222,0.347925,0.017362
2024-01-01 00:00:14.240,-0.281703,0.428039,8.071341,-0.203862,0.528087,-0.036818
2024-01-01 00:00:14.250,-0.354547,0.406116,8.827288,-0.006932,0.533244,0.048427
2024-01-01 00:00:14.260,0.166262,0.588397,8.790042,-0.050815,0.318455,-0.057535
2024-01-01 00:00:14.270,-0.174523,0.447684,8.762968,-0.084318,0.319868,-0.118619
2024-01-01 00:00:14.280,-0.030217,0.562291,9.292788,0.13068,0.400635,-0.098447
2024-01-01 00:00:14.290,-0.010001,0.491758,8.983465,-0.136759,0.4458,-0.096711
2024-01-01 00:00:14.300,0.085735,0.33492,9.506601,-0.022788,0.36667,0.052181
2024-01-01 00:00:14.310,0.172298,0.279228,9.263651,0.165846,0.564707,0.139414
2024-01-01 00:00:14.320,0.20313,0.571575,9.855454,0.094933,0.473366,-0.016661
2024-01-01 00:00:14.330,0.055234,0.473744,9.627232,0.065801,0.469938,0.086103
2024-01-01 00:00:14.340,0.130309,0.47079,9.860543,0.116043,0.256488,-0.078914
2024-01-01 00:00:14.350,0.209233,0.615973,10.157915,0.121714,0.533617,0.064518
2024-01-01 00:00:14.360,0.170204,0.667875,9.997997,-0.067687,0.038076,0.110641
2024-01-01 00:00:14.370,0.417383,0.488241,10.278342,0.086375,0.457514,-0.051707
2024-01-01 00:00:14.380,0.307571,0.473259,10.010525,0.336071,0.448554,0.054733
2024-01-01 00:00:14.390,0.360658,0.566641,10.636783,0.07658,0.26175,0.135123
2024-01-01 00:00:14.400,0.375471,0.335603,11.003822,0.130904,0.441903,-0.150152
2024-01-01 00:00:14.410,0.459797,0.516356,11.337174,0.11728,0.255544,0.197973
2024-01-01 00:00:14.420,0.363328,0.546288,10.73103,0.184761,0.243155,0.125896
2024-01-01 00:00:14.430,0.208152,0.551528,10.966622,0.137895,0.247688,0.161273
2024-01-01 00:00:14.440,0.433413,0.226697,10.377634,0.278666,0.559502,0.077111
2024-01-01 00:00:14.450,0.328447,0.356335,11.243294,0.256026,0.307662,-0.021644
2024-01-01 00:00:14.460,0.363789,0.330294,11.097847,0.336953,0.198896,0.164789
2024-01-01 00:00:14.470,0.517626,0.435075,10.810151,0.129465,-0.026963,0.121182
2024-01-01 00:00:14.480,0.615294,0.467612,11.258793,0.225845,0.067174,0.135912
2024-01-01 00:00:14.490,0.488063,0.575811,10.895161,0.250348,-0.08053,0.225726
2024-01-01 00:00:14.500,0.540728,0.32256,10.844426,0.342488,0.082708,0.20487
2024-01-01 00:00:14.510,0.725415,0.307485,11.068787,0.202613,-0.031994,0.302599
2024-01-01 00:00:14.520,0.56682,0.489898,10.666053,0.417267,-0.216435,0.166002
2024-01-01 00:00:14.530,0.866189,0.371797,11.160251,0.458934,-0.103961,0.102985
2024-01-01 00:00:14.540,0.637161,0.472144,10.604959,0.206649,-0.247219,0.147584
2024-01-01 00:00:14.550,0.372556,0.338062,10.561907,0.274722,-0.157955,0.200067
2024-01-01 00:00:14.560,0.688011,0.147541,10.544055,0.27766,-0.309056,0.252014
2024-01-01 00:00:14.570,0.656308,0.109015,10.900285,0.664783,-0.231427,0.057086
2024-01-01 00:00:14.580,0.777479,0.065044,10.487354,0.304245,-0.172166,0.1786
2024-01-01 00:00:14.590,0.714792,0.312568,10.228261,0.563607,-0.294677,0.309909
2024-01-01 00:00:14.600,0.627845,0.357336,10.330536,0.216267,-0.359755,0.164915
2024-01-01 00:00:14.610,0.507128,0.417923,10.384075,0.254981,-0.311312,0.261351
2024-01-01 00:00:14.620,0.637665,0.278203,10.000887,0.296321,-0.273096,0.228806
2024-01-01 00:00:14.630,0.568499,0.297364,9.906686,0.281695,-0.508755,0.268058
2024-01-01 00:00:14.640,0.607811,0.068803,10.615883,0.35498,-0.361729,0.128783
2024-01-01 00:00:14.650,0.754105,-0.01997,9.76192,0.305504,-0.249905,0.130847
2024-01-01 00:00:14.660,0.888947,0.201044,9.781449,0.295141,-0.351981,0.198353
2024-01-01 00:00:14.670,0.740077,0.129259,9.652312,0.534854,-0.424437,0.075341
2024-01-01 00:00:14.680,0.552436,0.072026,9.518091,0.544537,-0.362828,0.177261
2024-01-01 00:00:14.690,0.751586,0.085534,9.656123,0.512906,-0.391164,0.219725
2024-01-01 00:00:14.700,0.843182,0.057695,9.613885,0.462643,-0.358504,0.342653
2024-01-01 00:00:14.710,0.626824,0.15281,9.175794,0.411128,-0.692867,0.232217
2024-01-01 00:00:14.720,0.683387,0.13399,8.818639,0.340053,-0.635051,0.249867
2024-01-01 00:00:14.730,0.699763,0.023767,9.322555,0.284479,-0.324287,0.292587
2024-01-01 00:00:14.740,0.601406,0.039882,8.857672,0.441042,-0.619339,0.121568
2024-01-01 00:00:14.750,0.770045,-0.019919,9.193685,0.254737,-0.382001,0.18458
2024-01-01 00:00:14.760,0.673465,-0.15683,8.081986,0.27386,-0.461601,0.390599
2024-01-01 00:00:14.770,0.733126,-0.030448,8.577826,0.528511,-0.525813,0.188751
2024-01-01 00:00:14.780,0.570168,-0.308159,8.898148,0.614745,-0.349043,0.282648
2024-01-01 00:00:14.790,0.617148,-0.033747,8.224224,0.429848,-0.349507,0.268426
2024-01-01 00:00:14.800,0.748404,-0.322735,8.155303,0.5109,-0.101012,0.070813
2024-01-01 00:00:14.810,0.608164,-0.164034,8.190325,0.343586,-0.407948,0.211382
2024-01-01 00:00:14.820,0.850449,-0.31842,7.887665,0.207029,-0.137086,0.195515
2024-01-01 00:00:14.830,0.584701,-0.168974,7.866888,0.434979,-0.242871,0.207156
2024-01-01 00:00:14.840,0.648213,-0.257514,7.785062,0.423315,-0.338214,0.117171
2024-01-01 00:00:14.850,0.72092,-0.462537,7.644744,0.356605,-0.135321,0.084649
2024-01-01 00:00:14.860,0.425745,-0.23804,8.048735,0.311457,-0.134438,0.13219
2024-01-01 00:00:14.870,0.370791,-0.374844,7.804873,0.448087,-0.168033,0.158487
2024-01-01 00:00:14.880,0.384366,-0.216316,7.708784,0.205966,-0.109461,0.256926
2024-01-01 00:00:14.890,0.703549,-0.338021,7.813467,0.222597,-0.181377,0.30311
2024-01-01 00:00:14.900,0.469668,-0.306401,7.519293,0.18525,-0.176565,0.264839
2024-01-01 00:00:14.910,0.826006,-0.483957,7.37489,0.306781,0.046346,0.217107
2024-01-01 00:00:14.920,0.433746,-0.454469,7.409935,0.155999,-0.038735,0.062926
2024-01-01 00:00:14.930,0.505362,-0.45297,7.56232,0.194014,0.011517,0.10535
2024-01-01 00:00:14.940,0.64938,-0.308779,7.307482,0.180639,0.08758,0.149459
2024-01-01 00:00:14.950,0.685544,-0.223394,7.466701,0.222906,0.118421,0.076494
2024-01-01 00:00:14.960,0.672082,-0.533826,7.491185,0.064202,-0.052813,0.16752
2024-01-01 00:00:14.970,0.549023,-0.319921,8.188614,0.241333,0.304537,0.173073
2024-01-01 00:00:14.980,0.505681,-0.720839,7.009895,0.368416,0.195403,0.152273
2024-01-01 00:00:14.990,0.432157,-0.614496,7.712684,0.222575,0.186245,0.185169
2024-01-01 00:00:15.000,0.432232,-0.596328,8.251327,0.378575,0.290836,0.024441
