timestamp,acc_x,acc_y,acc_z,gyro_x,gyro_y,gyro_z,label
2024-01-01 00:00:00.000,-0.10790053670141712,-0.5848582370637916,0.11259682800842537,-0.13069938992572439,0.01703181304150012,0.2555963209563126,normal
2024-01-01 00:00:00.010,0.3611025304463132,-0.4247108331102922,0.9983036484502679,-0.017806169855104775,0.011040420813236617,0.013168068315241513,normal
2024-01-01 00:00:00.020,0.41906043588542813,0.05673692586681302,2.2851803961820663,0.028381894060564038,-1.1557449706635285,-0.461445828676432,normal
2024-01-01 00:00:00.030,0.09517077827536621,0.2131629932368098,3.036202373172209,-0.5039475628766322,-1.2739474434934734,0.24021588445361003,normal
2024-01-01 00:00:00.040,0.12424025761073304,0.164852237887237,4.358263080898676,-0.1429735096270228,-0.7579287036552393,-0.2237306013325344,normal
2024-01-01 00:00:00.050,-0.14686494105156703,-0.5158345752117856,5.262339685656812,-0.6392683671563134,-0.28740876749812494,-0.19014033769575076,normal
2024-01-01 00:00:00.060,-0.27423621144926685,-0.017703330260372612,6.222980625459739,-1.1688792699038841,0.3795353643484367,0.7034716386689612,normal
2024-01-01 00:00:00.070,-0.2701081887092964,-0.0950898592848723,7.006879472522636,-0.009310223448553229,-0.2656410534031083,0.3118698885534445,normal
2024-01-01 00:00:00.080,-0.2995293803965603,-0.45119339151184273,7.693803900359405,-0.18402408986340335,-0.3829423092817529,0.24159450601589147,normal
2024-01-01 00:00:00.090,0.2787614472281872,0.18863884545139492,8.257641044312388,-0.5510515528722293,0.19881328854042557,-0.7140451333980181,normal
2024-01-01 00:00:00.100,-0.016887575004279533,0.09998122346831727,8.594602979870599,-0.6535281019876029,0.3968683349922788,0.19420820079704054,normal
2024-01-01 00:00:00.110,0.03848372849201997,-0.1549810623326085,9.161422900958298,0.938096335553419,1.2746841230625807,0.1432273305341357,normal
2024-01-01 00:00:00.120,-0.19199113176613367,-0.06878799085213202,9.550357063694108,0.0689583526630476,0.03320431063846312,0.38866619553744064,normal
2024-01-01 00:00:00.130,-0.32634516256932283,0.5069606953177744,9.841496014223008,0.3994604355830949,0.876640281015266,0.43839267785313313,normal
2024-01-01 00:00:00.140,-0.36058625265399347,-0.37639417104306216,9.804456708475437,-0.9309175284788257,0.5040184254502817,-0.17243857499848367,normal
2024-01-01 00:00:00.150,-0.2524707553431769,0.46720889953308165,9.93795329115043,-0.42734940850428355,0.1642661031017535,0.5666896759022823,normal
2024-01-01 00:00:00.160,0.17974701441585553,-0.42202564318286473,9.765979533730805,-0.169627292964235,-0.08891910787239661,-0.4118120797775748,normal
2024-01-01 00:00:00.170,0.005532024588968442,0.05504257557094211,9.259852713745095,-0.03141598469380889,0.29502455339442824,0.4839500025221679,normal
2024-01-01 00:00:00.180,-0.1370314917732625,-0.08328692292427564,8.685475948884392,-0.4519342850801477,-0.13713231964072312,0.2543884571849619,normal
2024-01-01 00:00:00.190,-0.07178352055962171,0.006697762861868816,8.032856555220556,-0.6239611987728361,-0.14792578972926998,0.2981320192660745,normal
2024-01-01 00:00:00.200,-0.4282006050261054,0.38236767288373014,7.8060002220519005,-0.31932541714916896,0.6147090192471372,-0.16930450106341122,normal
2024-01-01 00:00:00.210,0.36920473131019693,0.31269433756864323,7.172293294881423,0.08935287301633199,-0.19377237918820475,0.14043227519698612,normal
2024-01-01 00:00:00.220,-0.3649246265824624,0.29312326965534774,5.819400395619925,-0.19496473334820946,-0.558323870056594,0.2794268832566714,normal
2024-01-01 00:00:00.230,0.012714534199431636,0.07445231966663342,4.956422712531371,0.056847561554173205,-0.781255210003744,0.12889069149004614,normal
2024-01-01 00:00:00.240,0.6410925494688227,0.21597148508890687,3.787198601963005,-1.0566882237302784,-0.7027535141252385,0.010549893836433542,normal
2024-01-01 00:00:00.250,-0.7653570784460266,0.03790214110897699,3.2548029300832906,-0.5702893240195466,0.04006914197060976,0.1478848800494268,normal
2024-01-01 00:00:00.260,-0.42208787379574586,-0.21449989555067217,1.8758053546836548,0.34451819789899424,-0.10172990070317259,-0.038579620691566875,normal
2024-01-01 00:00:00.270,-0.2171117951996174,-0.44441955450894616,0.7736127319757748,0.6280380934539642,-0.02876205810997654,0.34494610050992125,normal
2024-01-01 00:00:00.280,0.034965491925897055,-0.17050285113013777,0.13292148447103624,-0.4430141991936467,1.2493411752909038,-0.0727191097811709,normal
2024-01-01 00:00:00.290,-0.5144629016307263,0.20189919655439328,1.2749555884913168,-0.1998784437695107,0.5576912091242965,0.9742465454215269,normal
2024-01-01 00:00:00.300,-0.07058384416596963,-0.6328275993918945,2.42661304751988,-0.4956496153037343,-0.6575249915948091,-0.3391205989739447,normal
2024-01-01 00:00:00.310,-0.00852830308770356,0.3690958450694762,3.7323336924541577,-0.273798341266678,0.7907599172734837,0.6498470524690027,normal
2024-01-01 00:00:00.320,0.05115665700743973,-0.21514862130303278,4.557718145092431,-0.4088484101051668,-0.15896557096372285,-0.32806959261029506,normal
2024-01-01 00:00:00.330,-0.7165119882918974,-0.28111397717751346,5.637823771157947,-1.1065846394634582,-0.33937288596173687,-0.344127778309801,normal
2024-01-01 00:00:00.340,0.19393068785593784,-0.00956424699352447,6.190069865908548,0.7247354778821289,-0.7283164193464614,-0.20036671908540746,normal
2024-01-01 00:00:00.350,0.479060466713947,0.1935877192512681,7.1510273174674515,0.5265179703431718,-1.0731821132343236,-0.07515593522288899,normal
2024-01-01 00:00:00.360,0.130979751790475,-0.35624949896709557,7.643121651312137,-1.244981722403442,0.2085266249712191,0.44959845265747483,normal
2024-01-01 00:00:00.370,-0.21693490366281798,0.33303909932653747,8.390800905741596,0.17411859334452265,-0.34686808840353855,0.038090564805975786,normal
2024-01-01 00:00:00.380,-0.18403000870566363,0.4945737668692339,8.936551179713081,-0.22958147737291412,0.05735793660035332,-0.31906794153460194,normal
2024-01-01 00:00:00.390,-0.7938924685381575,0.16269661005893268,9.212970366799524,-0.46330011075133737,-0.9233801728816915,0.4355017528703755,normal
2024-01-01 00:00:00.400,0.14280073848784086,-0.15171359959274472,9.593649654892365,0.8958118488177964,-0.7384803082160646,-0.701672546740907,normal
2024-01-01 00:00:00.410,0.45092024407922326,-0.32650593196604716,9.940588815700758,-0.010403349621004192,-0.4183386278732709,0.041951963549648634,normal
2024-01-01 00:00:00.420,0.1950486289469691,-0.38387527990803844,9.57253741026862,-0.2668234186091544,0.1581217396428316,0.39603367465013517,normal
2024-01-01 00:00:00.430,-0.8931793510888774,-0.007902996175734601,9.622236783499451,-0.08609222506387598,0.16003063622643998,-0.35614750639325243,normal
2024-01-01 00:00:00.440,-0.12779303613948448,0.493654123125945,9.40547908938062,0.022345779028563453,0.5591841967999548,0.26139277078217454,normal
2024-01-01 00:00:00.450,-0.030856928002160142,-0.05673986481186359,8.841349564216076,-0.7973408164552009,-0.5750230554936347,-0.29603831366625494,normal
2024-01-01 00:00:00.460,-0.14505871822715585,0.09835062562098325,8.701572476940177,0.2436430985750026,-0.9891123038610554,0.5449630421877113,normal
2024-01-01 00:00:00.470,0.30996740839746506,0.08563132597893562,8.05182015621737,0.15689376268344085,0.5903631437246629,-0.17150558362241883,normal
2024-01-01 00:00:00.480,-0.5232853825366596,-0.04117556243299761,7.235434457255715,0.5647929352417259,0.47264873049001577,-0.5185509052348013,normal
2024-01-01 00:00:00.490,-0.21532673383787357,0.31541024269972245,6.739677845293673,0.014510192978095492,-0.6893080768331269,0.01946702818020301,normal
2024-01-01 00:00:00.500,0.17867258396314872,0.2071945433820909,5.589214190163259,0.2546713347407655,0.08082483289606306,0.7777419256267555,normal
2024-01-01 00:00:00.510,0.29727847894428455,0.2538043799370605,4.768960512842809,0.5496226859871494,0.366338428782442,-0.17811902094133977,normal
2024-01-01 00:00:00.520,0.050742833876141834,-0.24583105413629272,3.8223566975990075,-0.2698557378270532,0.26808259124747136,0.13502874364579975,normal
2024-01-01 00:00:00.530,0.3165836773301603,0.24921183574536607,2.780440273564548,-0.1067346329594794,0.4798685537708102,-0.15901473442883174,normal
2024-01-01 00:00:00.540,0.15605608344095293,-0.0367372229606565,1.3928845264842167,-0.5790272619394986,1.3397892171737162,0.10384789613611635,normal
2024-01-01 00:00:00.550,-0.3177803883451257,0.1720589598955441,0.4915524522185219,-0.942644041267207,0.5181486795813335,0.11435603310580598,normal
2024-01-01 00:00:00.560,0.3880558410428942,0.2737330830810772,0.5903853227437782,0.16134619173475911,0.8660728377053558,0.6263909423225159,normal
2024-01-01 00:00:00.570,-0.15170033605004463,-0.30393838093153225,1.6366872594622528,-0.5169899491104823,-0.2296101931801843,-0.21176317463534236,normal
2024-01-01 00:00:00.580,-0.4891717298101381,0.4128291024747266,2.6039986022528954,0.4678388503115229,0.1809696070448172,0.07024029543028683,normal
2024-01-01 00:00:00.590,0.13141080260890392,0.22993940528558712,3.697514878163034,-0.5056721722539667,-1.0424048077227133,0.08734000138378147,normal
2024-01-01 00:00:00.600,0.5442815686132789,-0.2729248903420856,4.734908043361781,-0.517732018856809,0.6152901152936785,0.21159195947410916,normal
2024-01-01 00:00:00.610,0.2877518136195681,0.5861653774627734,5.612765400485307,0.5320426206829636,-0.07343461586304595,0.20053947677065437,normal
2024-01-01 00:00:00.620,0.29919975760213835,-0.563463763954019,6.414913083973238,0.5056268369090027,-0.9121591990339738,-0.4614559728885905,normal
2024-01-01 00:00:00.630,0.057191584922338265,0.34467679680080165,7.175689878338885,-0.538383189751615,0.3514415647922613,0.5193598930515074,normal
2024-01-01 00:00:00.640,-0.7395014407327015,-0.7237975104450909,8.137117325805999,0.2158286725047046,-1.2344155062426492,0.08402366357876145,normal
2024-01-01 00:00:00.650,0.2040085941194441,-0.2527922220113827,8.614226725283007,0.3301439068152735,0.19778987975151494,0.19104504093523064,normal
2024-01-01 00:00:00.660,0.04725834426918912,0.03238628721930836,9.039251911398516,-0.16066225355315794,-0.5780035769214436,-0.4633150856180779,normal
2024-01-01 00:00:00.670,-0.7923379109008748,-0.48617765562684667,9.439849632329478,0.5726157197052879,0.09866309802190514,-0.04032513847438896,normal
2024-01-01 00:00:00.680,-0.19555581057197852,0.4214378515234108,9.689069636379012,-0.8148370827999529,0.3353433675457085,0.6072639420345315,normal
2024-01-01 00:00:00.690,-0.26390539949740294,0.17336257597944985,9.6021690744114,0.02189326662217138,0.12934383685669867,0.38147136273628746,normal
2024-01-01 00:00:00.700,0.3183379941373354,-0.43689301490482163,9.642444943324143,0.33623389689573224,0.18724994054798438,0.1760259823651847,normal
2024-01-01 00:00:00.710,0.03701294343171097,-0.3992587762191025,9.690039829518968,0.3707522562983216,-0.3143501301730407,0.8574971705904265,normal
2024-01-01 00:00:00.720,0.08946655970932062,-0.09508677341785998,9.422759031051502,0.07951019059045263,0.1819281805397902,0.12119351473899488,normal
2024-01-01 00:00:00.730,0.07281468628149847,-0.18959671316575322,9.28297915825916,-0.21189276147008235,-0.4678655430371067,0.16381376531423622,normal
2024-01-01 00:00:00.740,-0.39841671777156934,-0.37239745717191935,8.698370043633071,-0.25173978154741494,-1.0016919084187186,-0.24145080246872155,normal
2024-01-01 00:00:00.750,-0.5891467483779232,-0.21534045961346135,7.834429147870377,-0.06648752242422505,-0.619020527953336,-0.34991604087770267,normal
2024-01-01 00:00:00.760,0.017149999542136,-0.010681753876361532,7.105673453551641,-0.006701589589713114,-0.26125742960837617,0.059394942174780106,normal
2024-01-01 00:00:00.770,-0.08801401732776014,-0.1721753512485439,6.427053631614139,0.11530051262888669,-0.23793322592493812,0.08746083571964484,normal
2024-01-01 00:00:00.780,-0.004275225627988927,-0.06930646486256264,5.515850805901216,1.8137974600999647,-0.4512317911975834,0.5251435957888175,normal
2024-01-01 00:00:00.790,-0.04991117556457745,-0.1275737603917782,4.048841728467748,0.7982441365525291,-0.42303204606059575,-0.8011771788067337,normal
2024-01-01 00:00:00.800,-0.14976513560293186,-0.7866436658712503,3.417727482839801,0.7471952333578833,-0.42088096705847294,-0.10080973224146918,normal
2024-01-01 00:00:00.810,0.16655607182726853,-0.11150045029994678,2.478350198280447,-0.3042958976940324,0.2314967825682879,-0.050576246876696554,normal
2024-01-01 00:00:00.820,0.057551881533398554,0.3966972681007539,1.5416162784190601,0.6827266075344651,0.2337097818734527,-0.06866470018769137,normal
2024-01-01 00:00:00.830,-0.18686517143077624,0.22061838193512623,0.47318499781334866,-0.43095768138004714,-0.06364771345480515,-0.22749708347603473,normal
2024-01-01 00:00:00.840,-0.5698812272359071,-0.34357684978759323,1.0074735357694542,-1.1223161956590157,-0.733307203298883,-0.01716405747840624,normal
2024-01-01 00:00:00.850,-0.7770082650618545,-0.03594398633307743,1.7851745323592914,-0.836498209919578,-0.6867628295256835,-0.21293542214532016,normal
2024-01-01 00:00:00.860,-0.43221255287952937,-0.1989914687232529,2.8351822625735563,-0.05878468651337266,-0.45133278801795196,-0.15623347062025622,normal
2024-01-01 00:00:00.870,-0.04597369203345034,-0.0910161303129883,3.952252697693825,-0.06707453197563641,0.30544013940685577,0.40702109513706963,normal
2024-01-01 00:00:00.880,0.273386759463852,-0.1045660228014377,4.956419931777464,0.6572204629269128,-0.38567728109540067,0.25520477123799673,normal
2024-01-01 00:00:00.890,-0.1259898464732021,0.10110758129878844,5.860376725329548,0.14067138021191247,-1.0447775538001183,-0.17627567306743544,normal
2024-01-01 00:00:00.900,0.20316642552471,-0.25790106828385695,6.722309326488568,0.9456863449757896,1.1247205771069455,0.23881881209690037,normal
2024-01-01 00:00:00.910,0.34823992930328806,0.12819664856650054,7.180236884635025,-1.6829947450520932,-1.243191290059947,-0.2805152302440759,normal
2024-01-01 00:00:00.920,0.713990217844599,-0.031180778155941846,8.554657912236488,0.6749970756630767,-0.35724229544985175,0.46149219739831904,normal
2024-01-01 00:00:00.930,0.08612006677340048,0.18056024195315426,8.701198626303466,-0.3101116756635418,-0.23961126431035415,-0.07098739337238702,normal
2024-01-01 00:00:00.940,0.44832526778026055,-0.19951622875634192,9.307181688489633,0.1610276892616725,-0.5509604940256083,0.2160301878471247,normal
2024-01-01 00:00:00.950,0.07031167062049459,0.35289931733233776,9.585837595989666,-0.2891668828631429,-1.108632961733808,0.2780238705285767,normal
2024-01-01 00:00:00.960,-0.3715934798364053,0.1439204562654689,9.868108988309874,-0.5009200759428197,1.2185977833427784,0.017190466493534895,normal
2024-01-01 00:00:00.970,-0.6811929703660998,0.021722672596713826,9.838145890749619,-0.11400875500083396,0.03051342854403674,-0.33601360715921225,normal
2024-01-01 00:00:00.980,0.08917171862265617,0.25867796332705634,9.69674345748142,-0.26512683113244817,0.22183934561956897,0.14822234809148876,normal
2024-01-01 00:00:00.990,0.2665411594529806,0.1673672747114251,9.689958762893879,0.5545057457043664,-0.1663174234830262,0.22990521249529974,normal
2024-01-01 00:00:01.000,0.7408692641741312,0.2903962963428204,9.295718651361986,0.5635907464155878,0.6751928415536569,0.16974392580342282,normal
2024-01-01 00:00:01.010,-0.20047947502735408,0.2859955905706941,9.058410399264051,-0.010543664513780806,-0.7298820404807154,0.13648721374310113,normal
2024-01-01 00:00:01.020,0.14704577464201124,0.17553087552655477,8.460016746108879,-0.7642595735310148,-0.6903590286373368,-0.3764579854334452,normal
2024-01-01 00:00:01.030,-0.03475671832107122,0.09800755811241346,7.898779292781301,0.15115516814826824,1.5232537929247638,-0.0861067977605681,normal
2024-01-01 00:00:01.040,-0.7105209191930105,0.10782135817603591,7.236131965610247,0.04487023971568562,0.052915515848709654,0.22354570222380912,normal
2024-01-01 00:00:01.050,0.11244185415852462,0.026192082673327347,6.308084275104638,0.19040126119161888,-0.9751785531495818,-0.10277171970534418,normal
2024-01-01 00:00:01.060,-0.09652734356403887,0.2992149020965733,5.447733609798122,-0.056895353291647126,-1.1590714390411305,0.34568745472131635,normal
2024-01-01 00:00:01.070,-0.38292321018129444,-0.17126418437874233,4.4343233545068825,-0.25988336752273244,-0.7805949775862105,-0.41035788710878274,normal
2024-01-01 00:00:01.080,0.5063433787017714,-0.038254197240664534,3.413114986790605,0.25932185479552883,-0.04806581314849128,0.5986644256614451,normal
2024-01-01 00:00:01.090,-0.18512106333958653,0.07906016055092582,2.281693224607977,-0.34475969359094183,-0.22645967218888477,-0.4472835061839491,normal
2024-01-01 00:00:01.100,0.14066499616580422,-0.09749133187921388,1.2674481412366476,0.5616654797773168,0.6958742145581899,-0.18098265606222996,normal
2024-01-01 00:00:01.110,-0.07962800850739817,-0.19500597318934987,0.2123834021146052,0.29960055805310454,0.017438365053952406,-0.2591265386310186,normal
2024-01-01 00:00:01.120,-0.21496204471848826,-0.6002561575405004,1.0774416158939584,0.1032889602546646,-0.15980629142518063,-0.7836566595865907,normal
2024-01-01 00:00:01.130,-0.05036498615030284,-0.2153766230051053,1.919727569133586,0.3656864076835452,0.8083439124917314,-0.30161866071954274,normal
2024-01-01 00:00:01.140,0.23791882156010866,0.28380604093091394,3.178607923180394,0.4955156000339845,0.0017159986138482826,-0.559213005656707,normal
2024-01-01 00:00:01.150,-0.20698648187668828,-0.03872537375820734,3.9974843222023746,1.1846228640134289,0.811425085109904,-0.042265203740749456,normal
2024-01-01 00:00:01.160,-0.49544299481704607,0.24352267603271538,5.296157733192762,1.208004702022836,0.3948952573018194,-0.16247920051992013,normal
2024-01-01 00:00:01.170,0.5389116443236869,0.08892022834708775,5.969609907618354,-0.8081277240795289,0.129596611789129,0.42257399484560293,normal
2024-01-01 00:00:01.180,0.13180928903982914,-0.14164836296889446,7.241161707144257,-0.5829085845942124,0.2956423339016199,-0.20997549271257687,normal
2024-01-01 00:00:01.190,-0.2877113180392348,-0.026687099042818112,7.729437683242269,-0.26870145667455714,0.5142956036497008,-0.4631884753965407,normal
2024-01-01 00:00:01.200,-0.02750711877798082,-0.34635928096267266,8.154103714318518,0.36831424386409406,0.3705932925011859,0.12730067404382278,normal
2024-01-01 00:00:01.210,-0.46943195588679604,-0.19245412292092712,8.901718004791713,-0.8072434485711121,1.3148694781868722,0.20125950830880354,normal
2024-01-01 00:00:01.220,-0.019558355492693667,0.015455230667294251,9.269338315448028,-0.08342741973013008,-0.5948939957260934,0.29727789896661505,normal
2024-01-01 00:00:01.230,0.2581891263075261,-0.32117329750213386,9.673007966871703,-0.5376026893920546,0.1423041063204489,-0.20471948506550905,normal
2024-01-01 00:00:01.240,-0.579521764897151,0.4263479058811128,9.609885471708266,-0.5144877025408158,0.4480210063966221,-0.9871337966647725,normal
2024-01-01 00:00:01.250,0.2601108065568074,0.9031100508309364,9.530002669213676,0.5666887737904894,0.03218361489651251,-0.1983418569423773,normal
2024-01-01 00:00:01.260,0.24229214107692926,-0.3807528757948211,9.827794959408193,0.21193875732218417,-0.6209922906685814,-0.13019465222122226,normal
2024-01-01 00:00:01.270,-0.08156088422410536,0.412391971189361,9.758320936778949,-0.41636858382819125,0.015290050913958804,0.16864764989481815,normal
2024-01-01 00:00:01.280,0.030743254828210324,0.19206553643477342,9.17245421042295,-0.2894220533847826,-0.1990486494217669,-0.6138123508213489,normal
2024-01-01 00:00:01.290,-0.10003046516348994,-0.01919205513040954,8.755539727650632,-0.13251931211788107,0.93996160739717,-0.0032320140813906577,normal
2024-01-01 00:00:01.300,-0.13377320199540788,0.0836805850796566,8.310622886617086,-1.9085941156602662,-0.3754380736772558,0.21990270839553108,normal
2024-01-01 00:00:01.310,-0.558536693714771,-0.18833146265521672,7.844769656877734,-0.1074702045270652,-0.10664617657277334,0.22853615173359965,normal
2024-01-01 00:00:01.320,0.4891209301067234,-0.41146100443160993,7.006190110137814,-0.7192936944146026,0.2009201292705666,-0.4059325029679495,normal
2024-01-01 00:00:01.330,-0.2014437604406378,-0.3702800382622334,6.054089716065911,0.7684296052934599,-0.6166334000555295,0.06821941261936855,normal
2024-01-01 00:00:01.340,0.04043176994511964,0.01252481597791988,5.231135350626976,-0.59306767403875,-0.8965229929121229,-0.13027940169181562,normal
2024-01-01 00:00:01.350,-0.06835465463576475,0.15200966839888455,4.144496006640243,0.017326871942038604,0.4250914699125599,-0.4294541115835293,normal
2024-01-01 00:00:01.360,0.136628886412612,-0.47120377327601043,3.188125738513013,0.01887918909676642,0.23475525742096534,0.22141185988206533,normal
2024-01-01 00:00:01.370,0.17013097249764841,0.11396457573600731,2.248232906958067,-0.3822211857157007,-0.9474821198161116,0.4180330056058465,normal
2024-01-01 00:00:01.380,-0.3063693667732292,-0.5105457274617966,0.91393924614774,-0.5313264913269348,-0.2694215448494998,0.3250687573669532,normal
2024-01-01 00:00:01.390,0.10868731949899949,-0.370889628795111,0.03900079095089874,0.3325290771631353,-0.2153487321943284,0.5675305897106185,normal
2024-01-01 00:00:01.400,-0.08099282556270944,0.17114219236473524,1.226598307433208,0.30801520708131647,-0.11775036535737232,0.4189385492882537,normal
2024-01-01 00:00:01.410,-0.26506042944555336,0.11301919269830778,2.005972538593663,0.3932584372795444,-0.452352392832224,0.2746161775293357,normal
2024-01-01 00:00:01.420,0.3891083980623629,-0.055727764329032,3.197385714495736,-0.292373082479033,0.2533717404842281,-0.45894221073181235,normal
2024-01-01 00:00:01.430,0.35356852337497896,0.20983682456719677,4.527628607129841,0.6805984108076886,0.5597435721117023,0.02460261022037012,normal
2024-01-01 00:00:01.440,-0.27131893567597365,-0.11791154628268675,5.448201391565494,-0.09789393497105567,-0.36484049355314324,0.15525332047186705,normal
2024-01-01 00:00:01.450,-0.0906720096184054,0.2985676190951796,6.144778087803714,-0.04431448914848262,0.30329770350281726,0.21498945520396032,normal
2024-01-01 00:00:01.460,-0.30322963213828247,0.12731492426238855,7.01628848431815,1.555777859724741,-0.3357908352861002,0.5293488224055345,normal
2024-01-01 00:00:01.470,-0.3412133865955028,-0.12595699037437164,7.842993247014656,0.19534821212052428,0.8812681519880873,0.049216967692645726,normal
2024-01-01 00:00:01.480,-0.29472371274753084,0.33627735549857846,8.373734728568039,-1.1059945567220477,-0.8056852313611161,0.6060753898620181,normal
2024-01-01 00:00:01.490,0.1664004305846393,0.41052683538492507,8.748386042001881,-0.3499143665549832,0.7093278295193363,0.019218680089871588,normal
2024-01-01 00:00:01.500,-0.42497558511294886,-0.7671310805559716,9.41617085422306,0.9317655265869247,0.3925923734322657,0.015425549030905539,normal
2024-01-01 00:00:01.510,-0.4387987098633728,-0.5999601699050962,9.601847755432367,0.24280062898352117,0.13056930170802444,-0.01304138003661535,normal
2024-01-01 00:00:01.520,0.08627951842455303,-0.00997047828909745,9.753482794175167,0.0019175489119440687,-0.11148443391904596,0.30554075189977914,normal
2024-01-01 00:00:01.530,-0.21588997009740382,-0.21039373670441316,9.874351897985777,-0.619540467324666,-0.009866549178174333,-0.14956742746737703,normal
2024-01-01 00:00:01.540,0.36877121746918995,-0.021832103170779663,9.693327005116625,0.6380389417899864,0.5507145068590191,0.18345135011619473,normal
2024-01-01 00:00:01.550,-0.28824805119777563,-0.07861938675271708,9.631504283027335,-0.11055657626317054,0.2520128374603927,-0.026418581862315896,normal
2024-01-01 00:00:01.560,-0.14587027103509967,0.09291233269537387,9.222688506383653,0.28583648582181664,0.8398438115732191,-0.5902156013736335,normal
2024-01-01 00:00:01.570,-0.23268587450123757,0.3685471368729617,8.605703450302302,-1.0390992651559277,-0.07007806455405109,0.3255105811100189,normal
2024-01-01 00:00:01.580,-0.6944542328437925,0.8736603849571845,7.921566924030799,-0.3063726569884419,-0.302990429990745,-0.09053936209260467,normal
2024-01-01 00:00:01.590,0.10435357388567344,-0.04668430265613672,7.759929577380122,0.16701124498115213,0.2759880260993614,0.7942546650423159,normal
2024-01-01 00:00:01.600,0.20856501643268857,0.6260068173891605,6.851913711665681,1.3740262393158709,0.025163026218710968,-0.2421220964274143,normal
2024-01-01 00:00:01.610,0.2865368114961789,0.013662851317053696,5.613555526206114,-0.2382573002411432,0.5981738987279008,-0.3836388160145878,normal
2024-01-01 00:00:01.620,-0.056535660589192266,-0.3243232077546074,4.754394355933297,-0.0017853487568722242,0.23239853883905032,0.2583903577816041,normal
2024-01-01 00:00:01.630,0.20034973122381963,0.14804347800090234,4.17073138101903,-1.1192049750847668,0.8102068068061445,-0.27194032974650156,normal
2024-01-01 00:00:01.640,-0.046354682632531424,-0.43801407569186007,2.624782705297996,-0.13354836447878463,0.12231143402203286,-0.1865315498535066,normal
2024-01-01 00:00:01.650,-0.028270151530719784,-0.09410453121889818,1.6929161045049717,0.9704315340795525,0.05396193864837102,-0.06600213045834555,normal
2024-01-01 00:00:01.660,-0.24051630696615606,-0.20714665264587034,0.5925147137607838,0.45438336283584063,0.5911791707091478,-0.33096999419965223,normal
2024-01-01 00:00:01.670,-0.0473716433145021,0.15273580532621917,0.6067153758055266,0.5714162892459859,-0.8447874786756896,0.6400584877404876,normal
2024-01-01 00:00:01.680,-0.2830251802708618,0.27346911871276053,1.397000950043934,0.7840670310997137,0.27823110078538504,-0.2988140657956254,normal
2024-01-01 00:00:01.690,0.17990116255778402,0.3513862768682951,2.5832958354469624,-0.23624251826860426,0.3334329440379501,0.5328801894399374,normal
2024-01-01 00:00:01.700,-0.20249663644993304,-0.6190191378746305,3.5037163809931875,0.7983700396880502,0.5248925118350483,-0.3765535096317155,normal
2024-01-01 00:00:01.710,-0.3137087538205666,0.0959725977300374,4.593373911408764,0.6379686839215811,-0.2169307691407011,-0.15458349146552827,normal
2024-01-01 00:00:01.720,-0.03232593761479143,-0.41627760947180964,5.428535568736322,0.8780876295986759,-0.09504563275716864,0.15337019225235732,normal
2024-01-01 00:00:01.730,-0.01765271541725562,-0.08937337797786737,6.538554306611119,0.28956582585701107,-0.06883333981857075,0.0041825981801886835,normal
2024-01-01 00:00:01.740,-0.5069322643659728,0.08299507004613774,7.260114489108299,-1.0522969600635637,-0.10556954228128118,0.005000442416699633,normal
2024-01-01 00:00:01.750,-0.321193769485514,0.14318090051321458,7.840796131156436,0.6367931551274791,1.4199852711457146,0.5266151647707854,normal
2024-01-01 00:00:01.760,-0.17575110932385754,0.25922740688189716,8.458927133857406,-0.827405908426909,-0.9427485663260474,0.22861919995709631,normal
2024-01-01 00:00:01.770,0.11431814257359083,0.10323506961877962,9.216766563797165,0.6637260563508969,0.11589692975765752,-0.2279001682320224,normal
2024-01-01 00:00:01.780,0.15624321527587057,0.30365886686588023,9.409771175947997,-0.80277943517197,-0.08910513123523676,-0.2131694315177748,normal
2024-01-01 00:00:01.790,0.23479945090464843,-0.08707962633417568,9.557272146772588,0.19905690576936652,-0.008756435337848173,0.36662774924062935,normal
2024-01-01 00:00:01.800,-0.07999943083046927,-0.3203223093421437,9.456871011842704,-0.6394631476419783,0.04694665701788041,0.1397004426033864,normal
2024-01-01 00:00:01.810,-0.25099166910377463,-0.08056800605794152,9.794664741185365,-0.48285887027211943,0.1497876879262906,-0.19129157298563967,normal
2024-01-01 00:00:01.820,-0.43217495672422773,0.04118610015954904,9.809280448023559,0.20466935910491402,-0.34844649975254177,0.1014193658382192,normal
2024-01-01 00:00:01.830,0.029594372678889366,-0.41264641720629014,9.104618752277023,0.21795968360428453,-0.08606599229841365,0.114350526025155,normal
2024-01-01 00:00:01.840,-0.1256221205716316,0.05418352044637182,9.327721957295342,-0.9291463519778371,1.3458130871980856,-0.46719844277255984,normal
2024-01-01 00:00:01.850,0.1245601004791616,0.13398320440433287,8.435648135164184,-0.1726991496528087,-0.8840158431703572,-0.5008403082251242,normal
2024-01-01 00:00:01.860,0.2972793850138198,-0.11588050235511686,8.039260265175326,1.3096020341636432,1.0607455809595485,-0.22839628743939833,normal
2024-01-01 00:00:01.870,0.5943479257970607,0.4789375522495403,7.720615810812144,0.5482496232115235,-0.5326576503661474,0.515396310179951,normal
2024-01-01 00:00:01.880,-0.2651779746661846,0.02651176762290676,6.439053367891345,-0.13665100240533193,-0.3313426275658129,0.4180903722534795,normal
2024-01-01 00:00:01.890,0.16605367664623674,0.22172904035371216,5.758136486659161,0.03806091954287951,0.4344082794103758,0.0025062373988039986,normal
2024-01-01 00:00:01.900,-0.4983788411093483,-0.3039282238092076,4.8836784003114095,0.5937650359794588,-0.6033545011495545,-0.16754151832084788,normal
2024-01-01 00:00:01.910,0.31030579300570577,-0.09481418612411807,3.672834554829264,-0.5801989972469795,0.06962103225552746,0.14225414045286378,normal
2024-01-01 00:00:01.920,-0.3667475915982386,0.009063312023467182,2.8644013172706506,-0.5437246250817395,-0.7184470147960537,0.6487356585937544,normal
2024-01-01 00:00:01.930,-0.04152570531883568,-0.09695652866135927,1.4017121630918299,-0.3714087512799082,-0.08808001557643284,0.23053450501119022,normal
2024-01-01 00:00:01.940,-0.3310327567429676,0.23866618379302845,0.4020012613119587,0.00260314514393665,-0.3024704907651436,-0.28602286277450406,normal
2024-01-01 00:00:01.950,0.4654959397228856,0.3529131278233633,0.3426177354604107,0.20032303555177697,-0.18845243989491106,0.11251730470357373,normal
2024-01-01 00:00:01.960,0.16433184867885034,0.36124904489008763,1.5567401761949669,-0.24912761978610806,-0.08771706183807353,0.3606593130250966,normal
2024-01-01 00:00:01.970,0.2684971287630272,0.2580068071078687,2.8030939964783292,0.4334896890751424,-0.22422739575411696,-0.454760730349944,normal
2024-01-01 00:00:01.980,-0.04269794269412241,-0.2015569870442512,3.987064510825895,-0.6606354626675791,0.615244300942387,0.09983043577454823,normal
2024-01-01 00:00:01.990,0.11433102809787785,-0.09940507550581355,4.685988538422823,0.7741526867959393,0.2505321714234508,0.6892640864325241,normal
2024-01-01 00:00:02.000,-0.3316469753842794,-0.6725944684496058,5.746407663151999,-0.7221479273764673,0.47424075836462676,-0.22687997266392168,normal
2024-01-01 00:00:02.010,-0.1450225616604288,0.21931940828410604,6.435548386786859,-0.7535505761906963,-0.29338681935244953,-0.0388487977968028,normal
2024-01-01 00:00:02.020,0.41024591055658216,-0.29216586412611395,7.400437883802008,0.08893755432078837,0.1066746771785802,-0.08140342184846111,normal
2024-01-01 00:00:02.030,-0.5573187561425863,-0.129788984598096,8.146352714473768,-1.1177035775698505,0.7742118657983951,-0.40882899699136804,normal
2024-01-01 00:00:02.040,0.019296720994923123,0.28767298688560744,8.923516759442515,-0.45507899527647944,-0.37509242410891735,-0.029969301764768953,normal
2024-01-01 00:00:02.050,0.36293585383455823,0.40347306438858255,8.762832458280908,-0.11254483320127677,-0.14999985098797547,0.06218095697908075,normal
2024-01-01 00:00:02.060,0.3232054658841344,-0.18637429711473044,9.362889576432144,-0.3532460708677842,-0.3095907860993257,0.2741137833398652,normal
2024-01-01 00:00:02.070,0.20017876457925843,-0.44374790215109516,9.710040622408979,0.4053158948556027,0.1834994706028104,-0.16633282985313302,normal
2024-01-01 00:00:02.080,0.004371192531404501,-0.10821009181847399,9.736385533460352,0.2974327936675879,-0.353340029529828,0.6356420312547643,normal
2024-01-01 00:00:02.090,0.405074830713766,-0.16175670187517668,9.756218912255877,-0.025085466934297928,0.8387383582870148,-0.5599925425460867,normal
2024-01-01 00:00:02.100,-0.08698914336486548,-0.5692217837092666,9.424270690310248,-0.9058091701631896,-0.7678692659578514,0.04924716732976524,normal
2024-01-01 00:00:02.110,-0.012835948047800616,-0.09933864584682651,9.415694154680471,-0.5180564555944189,-0.1667318264201886,-0.698342384455103,normal
2024-01-01 00:00:02.120,-0.5057737374773488,-0.09019883589367866,8.898078558704865,-0.5539115712676949,0.20252928820077082,0.2081703648411805,normal
2024-01-01 00:00:02.130,0.09320240218546794,0.46218751190111673,8.441413904413652,0.2966443109320555,0.5589010255090552,0.3699704543494141,normal
2024-01-01 00:00:02.140,-0.09503961629437545,0.6070035847275206,7.867751435710386,-0.8484441737635458,0.9075401149454163,0.3585582537448574,normal
2024-01-01 00:00:02.150,-3.795290933732953e-05,-0.2653872473014799,7.241556095683018,-1.2047729046424354,-0.583962931020301,0.08725285793735929,normal
2024-01-01 00:00:02.160,-0.6803710578928654,-0.36498134771338303,6.2406615715090235,0.12948432097627105,0.08715212154398046,-0.15925516306243329,normal
2024-01-01 00:00:02.170,-0.3561905014768738,-0.14440256688301978,5.361369673426885,-0.4943123913092526,-0.8503562331336614,0.1758066130512286,normal
2024-01-01 00:00:02.180,-0.04593606150044561,-0.005008255984621727,4.608384629527633,-0.5754146586048084,-0.3012459189652877,0.12877630268171203,normal
2024-01-01 00:00:02.190,-0.36487748128461256,0.1299460641657923,3.708251124405214,-0.09019251526202451,-0.5474298333588711,-0.02603059544042417,normal
2024-01-01 00:00:02.200,0.19151494020842635,0.23601066567517398,2.5686811045310276,0.42175578652763984,0.6831613448173086,0.14138910881353098,normal
2024-01-01 00:00:02.210,0.6205641213705411,-0.28024275401121646,1.4333048680823546,-0.8733580932415433,0.5214449384457024,0.2065724418958696,normal
2024-01-01 00:00:02.220,-0.012983614085705504,-0.06933643576105283,0.07887089714582354,-0.1429652970636742,0.031070319538227805,0.20634317282345166,normal
2024-01-01 00:00:02.230,0.12730341491072358,-0.2714525130120725,0.9386721764305724,-0.29662116507360864,0.37796621240883344,0.2741311189742403,normal
2024-01-01 00:00:02.240,-0.13814202545729698,0.09433666925311793,2.006668226662284,-0.1364462399250332,0.6840877666319607,0.17626486896269222,normal
2024-01-01 00:00:02.250,-0.14663304278155648,-0.04128833565279338,2.919087705931744,-0.28034604646894046,-0.9635764132372059,-0.09379347156939503,normal
2024-01-01 00:00:02.260,-0.44488898105542934,0.41898099106516995,3.9607718370123792,-0.08571308880189588,-0.7606872846635034,0.15712141567850582,normal
2024-01-01 00:00:02.270,0.14781931360066702,-0.5791495488723974,5.355385952432739,0.010653277315007597,-0.16570649489131245,-0.008504291868095542,normal
2024-01-01 00:00:02.280,-0.41234665772490664,0.06106166857967507,6.049483926269514,0.012832066412312557,0.6942609141923479,0.03069706453802758,normal
2024-01-01 00:00:02.290,-0.17229089675091233,-0.0421029865632355,6.56637797216467,1.2722818093774948,-1.7295016923979616,0.9403121577868238,normal
2024-01-01 00:00:02.300,-0.19620008247832518,-0.09682960813634392,7.441204282308925,-0.15026512982278598,-0.1287827583520213,-0.18443368708867416,normal
2024-01-01 00:00:02.310,-0.39075282059272815,0.025120334230005266,8.40551182480565,-0.020711607898248344,0.2629075986437661,-0.279770761743232,normal
2024-01-01 00:00:02.320,-0.240169283396955,-0.2694026665116382,8.670783880621173,-0.014207040350536998,-0.23999858612574854,0.12468886946501168,normal
2024-01-01 00:00:02.330,-0.06777976200920635,-0.1814186226267133,8.94163846139912,0.4952442148311183,-0.6522951055032876,0.2419737786253635,normal
2024-01-01 00:00:02.340,0.2809091718720852,0.3890342496890254,9.550661410889994,1.0628025827925551,-0.6147159946622223,0.03948029055755108,normal
2024-01-01 00:00:02.350,-0.03879039267124505,-0.27967519804654045,9.852421483229865,0.3776581421318122,-0.15208303745707566,0.13247584729213271,normal
2024-01-01 00:00:02.360,0.3499623296696532,-0.3300177652726634,9.672556430864926,0.18708314208830087,0.003622516316307903,0.13987642183465512,normal
2024-01-01 00:00:02.370,0.06202157789661396,0.45061847427440876,9.566522896368257,-0.1461071737373093,-0.33306513999004933,0.07609985372235063,normal
2024-01-01 00:00:02.380,0.001834918454499201,-0.17864636698531014,9.70568803125782,0.07121917571759796,0.2456133665631633,0.10809819389665734,normal
2024-01-01 00:00:02.390,0.10446732621050964,-0.17928622367300093,9.319182814202092,-1.007008642177225,-0.8493250174628643,-0.603337362142177,normal
2024-01-01 00:00:02.400,-0.126498277885058,0.39624528365802797,8.785612569557298,-0.019300119226129175,-0.26446737015397725,-0.28289938762300804,normal
2024-01-01 00:00:02.410,0.2309817699987955,-0.12433306207850987,8.185511557786635,0.725030589611458,-0.32392070624219904,-0.566232664495302,normal
2024-01-01 00:00:02.420,-0.0004509599383190656,0.34193398125921287,7.618763055006437,0.5791864334153576,-0.9069293706379521,0.0689970313217242,normal
2024-01-01 00:00:02.430,-0.007364414714458298,-0.42069441201746033,7.1485851475539945,-0.5965874145227738,-0.6801919698777471,0.4008150044194807,normal
2024-01-01 00:00:02.440,0.49311407364196636,-0.03586757788590542,6.363994504271438,0.13190272891544397,-0.8165106433697071,0.2511922465280228,normal
2024-01-01 00:00:02.450,-0.2928114627416241,-0.3717308187734677,5.2668869523672255,-0.7902780887077254,-0.051209933291251286,-0.32284387092965766,normal
2024-01-01 00:00:02.460,-0.33102835802620656,-0.12269058249089264,4.103458724285601,0.7589924459308685,0.6386535606168704,0.06679957753256516,normal
2024-01-01 00:00:02.470,-0.06238466299363893,-0.44094642938992085,3.3375598624487175,1.2323073714936923,-0.028151613586686358,0.2518628209389943,normal
2024-01-01 00:00:02.480,0.04733551687577051,-0.587765587363596,2.3532600925321505,-0.5488644946268778,-0.09472882167488415,0.0885257236146666,normal
2024-01-01 00:00:02.490,-0.13463579776986082,-0.04536756203417188,0.9222995453743165,-0.1502764970278894,-0.20601000793476112,0.21998099633191573,normal
2024-01-01 00:00:02.500,0.22730290776028053,0.037919316841312854,-0.08916931285858926,0.6301309136616783,-0.37464662627740125,-0.3742769397300708,normal
2024-01-01 00:00:02.510,0.06222629421463887,0.1438857619643102,0.8987287005759521,0.20627457465121526,0.44708174135950096,-0.10415439029959046,normal
2024-01-01 00:00:02.520,0.06918492852517964,-0.2525073415327804,2.242011055890724,0.356173362346108,-0.08772362641415951,0.6341693329311575,normal
2024-01-01 00:00:02.530,-0.41909838753198536,-0.3607518153306984,2.9961859400018254,0.0002246227728046915,-0.22941916994385506,-0.41385907858067333,normal
2024-01-01 00:00:02.540,0.4627068998636381,0.11134200860746502,4.146750381813828,0.30339231734082095,0.28459248384357644,-0.7764641013194283,normal
2024-01-01 00:00:02.550,-0.00944135395476782,-0.00773508963267901,5.472031055777407,0.8007206837893074,-0.20798138698204494,-0.1585630507587102,normal
2024-01-01 00:00:02.560,-0.2954040273976754,0.12006709736304995,5.975823716741332,0.8577474649220296,-1.0201135673603539,-0.02007001861870987,normal
2024-01-01 00:00:02.570,0.37191663193281466,-0.05884143158223771,7.112188146451829,-0.28177719385048433,-0.8552435925445174,-0.8470805508806979,normal
2024-01-01 00:00:02.580,-0.034196176648534006,-0.2549718009145047,7.744068648622521,0.5552575312538468,-0.3708781880974188,-0.17996867601441455,normal
2024-01-01 00:00:02.590,-0.24384242846431647,0.12311023351752419,8.201349524372583,-1.1169011866388332,-0.3181764793944427,0.7207749817158263,normal
2024-01-01 00:00:02.600,-0.35518963205462223,0.15503822253310484,8.928469598013292,0.44225881508294274,-0.5100028806242835,0.5705686162076923,normal
2024-01-01 00:00:02.610,-0.028766406906697347,-0.23689851837663292,9.24088363559761,-0.20460153195359226,-1.2600630739215228,0.4429993873159422,normal
2024-01-01 00:00:02.620,-0.21496529099811282,-0.18201016787718516,9.461995702470913,-0.4862766994820667,0.4928265680952113,-0.5946359614198319,normal
2024-01-01 00:00:02.630,-0.31749528588182835,0.6318801321660863,9.860095290349875,-0.31001702711798695,0.6357878092233785,-0.029322017699554278,normal
2024-01-01 00:00:02.640,-0.05245709574331967,0.13160433175550684,9.687584015141807,-0.48861578386473686,-0.37576685680144706,-0.2255508934598326,normal
2024-01-01 00:00:02.650,-0.09409206636671122,0.17039232679639418,9.867591103114695,0.7272332504343171,-1.6127152843932784,0.16942630704408668,normal
2024-01-01 00:00:02.660,-0.1876922130250239,-0.2715552158210554,9.594095907252598,-0.21439363636782577,-0.053811485021587405,0.20006742609817388,normal
2024-01-01 00:00:02.670,0.2529987554162828,-0.009263137353817898,9.214106175329475,-1.0588421514918425,-0.3075988726929466,0.48255298754455084,normal
2024-01-01 00:00:02.680,0.41465661521035013,0.17482987930370744,8.87275556938172,0.3056380072809266,-0.03535138919925837,-0.9150159561828276,normal
2024-01-01 00:00:02.690,0.40156679766825976,-0.014448374281344113,8.23037893953691,0.26563514554446827,0.2559659014230448,-0.2711020122066892,normal
2024-01-01 00:00:02.700,-0.1334839088688368,0.30971294398827115,7.54661380407996,0.31173435284563294,0.08814733856774684,-0.08434071027451578,normal
2024-01-01 00:00:02.710,-0.17682911757966377,0.19983488056776794,6.792090015228742,0.45846076071960773,-0.15793592538327028,0.03822845507243382,normal
2024-01-01 00:00:02.720,-0.4883404534985949,-0.03596138832612552,5.812619845922917,0.5017423445493499,0.5070840436056474,-0.11579323182051215,normal
2024-01-01 00:00:02.730,-0.10140029231270328,-0.23471201778125197,5.102462007923858,-0.37898273536532756,-0.9342552392950336,0.21612805366319895,normal
2024-01-01 00:00:02.740,-0.3080861886272311,0.04889357005551197,4.100696894754266,0.5349876593077296,-0.8017166579665985,-0.2845454670902999,normal
2024-01-01 00:00:02.750,0.029594528001998844,-0.13992077098459071,3.1463578966276886,-1.0522387983235275,-0.2184964191868711,0.042264095352927245,normal
2024-01-01 00:00:02.760,-0.1036620713554047,0.3007835957870197,2.1195909832790347,-0.49558645915946276,-0.5938738577195628,-0.5981656178554026,normal
2024-01-01 00:00:02.770,0.1646553835348967,-0.25043740546182236,0.818973721732333,-0.249599044085441,0.9357097891371444,0.3432678746795305,normal
2024-01-01 00:00:02.780,-0.03697991993681608,0.0069075949822745885,-0.03554177441917203,0.21921934970527002,-0.38111741945528455,0.6712525537925662,normal
2024-01-01 00:00:02.790,0.11257853681879587,-0.16697697594092215,1.309568256295033,-0.047929087777665504,-0.026382843733250744,-0.2913942967899229,normal
2024-01-01 00:00:02.800,0.15726748243794353,0.3098579783531571,2.6586307644438785,-0.7470845199839969,-0.46940498243417134,-0.6193360011367399,normal
2024-01-01 00:00:02.810,-0.7406024717566051,0.2932531474292527,3.592634752759041,-0.12600857686672942,-0.2937408775466301,0.6988551181354794,normal
2024-01-01 00:00:02.820,-0.32312588391848335,-0.5229799721784817,4.4963255041949415,-0.10086693882451966,0.27668957043890535,0.07298734956239368,normal
2024-01-01 00:00:02.830,0.051236236628559265,-0.36841411504901933,5.5638811723121915,-0.4633412244413091,-0.2808049317260609,0.1893904425208108,normal
2024-01-01 00:00:02.840,-0.02124612298643463,0.3238001770015723,6.124067042913985,0.578524047454725,0.6823151413805765,0.4742556963746505,normal
2024-01-01 00:00:02.850,0.035824739555997916,-0.37395614900711255,7.447727979470707,-1.1135370079071634,-0.43213964252066883,0.52406417199896,normal
2024-01-01 00:00:02.860,-0.16865231558710667,0.6260722027472917,7.97600163411634,-0.20012912002438596,-0.19230972973191882,0.031176840342200637,normal
2024-01-01 00:00:02.870,0.19002359873675448,-0.48643606191010763,8.36297133765522,-0.9485801344894719,0.13113161362055964,-0.2510722078639785,normal
2024-01-01 00:00:02.880,-0.15813205998542035,0.2739189332516165,8.676307037640903,-1.588835038916327,-0.07025165829886844,-0.5476529060229338,normal
2024-01-01 00:00:02.890,-0.0982706994821703,-0.03259961204617548,9.402529865980329,0.03469554422953207,0.4246399812582375,-0.5472288376710281,normal
2024-01-01 00:00:02.900,-0.21228232009756234,-0.25757487696464254,9.46670666332673,0.1934169438212921,-0.542173549182552,0.41268029570491827,normal
2024-01-01 00:00:02.910,0.18187052402343792,0.0787814148985353,9.628902788215425,0.145881100547452,0.6182988511348516,-0.11264945570731288,normal
2024-01-01 00:00:02.920,0.21768700267203958,0.040196660169741195,9.915843905415555,0.813196650192852,0.1466239898551431,0.41925132578122903,normal
2024-01-01 00:00:02.930,-0.03677481861010027,0.28418195530804435,9.81093876631263,0.08921171071055446,-0.6589557054936658,-0.4611095581293846,normal
2024-01-01 00:00:02.940,0.08637143383522143,-0.3552656245185832,9.629524396657098,0.6596229330359786,1.0637213235639587,0.031753129442416005,normal
2024-01-01 00:00:02.950,-0.6349626250145856,-0.31008826417577723,9.468665918012341,0.5899263118351614,0.3893307768334012,0.05505133758022954,normal
2024-01-01 00:00:02.960,0.2626973721586175,0.44768305347873316,8.79098037727899,-0.7319198748086146,0.14604806615199753,0.2967495623451552,normal
2024-01-01 00:00:02.970,-0.6114484289202893,-0.2588301652729667,8.207041531922485,-0.19463424121626913,0.3656209320329958,-0.0031965085716782536,normal
2024-01-01 00:00:02.980,-0.1993449951239321,0.39798452722235966,7.218307527922125,-1.078774395916698,0.26544896552001646,-0.37234872331314106,normal
2024-01-01 00:00:02.990,-0.7439797075216823,0.08713098903787478,6.62889605107321,0.11432627173737925,-0.7906204744018441,-0.1901890348813618,normal
2024-01-01 00:00:03.000,-0.20077390644827184,-0.1625378273867617,5.900475070426324,0.9060716227872893,0.4930441556165939,0.370007840903145,normal
2024-01-01 00:00:03.010,-0.217495561557553,0.1502003017319406,4.8494725402221315,-0.40499283844204387,0.46259637368529,-0.0988531704284426,normal
2024-01-01 00:00:03.020,0.5747110106379517,-0.08374886694734603,4.1334213981949555,-0.6774476623206678,-0.2851315965492712,0.01232705423326891,normal
2024-01-01 00:00:03.030,-0.36902202609651213,-0.08042478198043752,2.874434476372842,0.18164194564143427,-0.4659026613125851,0.31054363907757204,normal
2024-01-01 00:00:03.040,-0.8240471089727601,-0.25868440622727,1.6171985250764693,0.5918506482636493,0.0647602755367938,-0.1667913583643168,normal
2024-01-01 00:00:03.050,0.00930212182686894,-0.19649389931099004,0.5650867778018371,-0.5209574604867943,-0.3061096471074634,0.19246540708726245,normal
2024-01-01 00:00:03.060,-0.12440118254292068,0.08109449788643164,0.4155230849371449,0.2279114743633082,0.06943350003745893,-0.14415941610718308,normal
2024-01-01 00:00:03.070,0.31706969457743356,0.15783264854533327,1.6845012535044621,0.0033950919003500977,0.14106977162262083,-0.015217115693472769,normal
2024-01-01 00:00:03.080,0.210158897375785,0.3830048886099664,2.769853174665332,-1.2185679106328822,0.3951301127971205,0.06410550117043567,normal
2024-01-01 00:00:03.090,-0.5424096618113172,0.059250334521790585,3.739421547582262,-0.8341736172922062,-0.5388665270711285,-0.2172878101116811,normal
2024-01-01 00:00:03.100,-0.13488941476068003,-0.12709945870769868,4.552333900582336,0.09794796932548415,0.8202132371889921,-0.291625437406322,normal
2024-01-01 00:00:03.110,-0.12454197052082801,-0.2868264110422547,5.947832194783733,-0.28312533737884643,-0.5771402763305182,-0.21592638024244695,normal
2024-01-01 00:00:03.120,0.0012128474826782361,-0.2326074953206354,6.718227360245856,-0.8758459067003852,0.3478135602208761,0.4097860121171521,normal
2024-01-01 00:00:03.130,-0.12598191073175177,-0.3448942660456416,7.26631742365072,0.11801826898439619,0.06280953831501014,-0.2749159907568259,normal
2024-01-01 00:00:03.140,-0.06306171948652547,0.15257236273555824,7.930941531279747,-0.6616231865980602,0.4754324885153307,-0.47613398541313434,normal
2024-01-01 00:00:03.150,0.0521017835125158,-0.1486048176478543,8.723080700929641,0.9548763172524026,-0.6254090994511059,0.6708573261106222,normal
2024-01-01 00:00:03.160,-0.5699578903118482,-0.054726679425643826,9.255841203017779,0.4014080518031749,0.13377246718182217,0.5297783966485964,normal
2024-01-01 00:00:03.170,-0.31663701658961163,0.8665584632936011,9.525673080111417,-0.681727003951191,1.232425281493625,-0.11750068906856043,normal
2024-01-01 00:00:03.180,0.38736939082826904,-0.4252569265508354,9.820570554531818,-0.8059543090867605,0.5781150349568458,-0.6886842995851415,normal
2024-01-01 00:00:03.190,0.35107006440962824,0.07291194644544564,9.585302786271725,1.6083551812426864,0.4413672244783948,0.7627390799444044,normal
2024-01-01 00:00:03.200,0.049234449188721545,-0.16497375776256173,9.9058298175785,-0.45637183640669265,-0.6913736520533321,0.34148999487191345,normal
2024-01-01 00:00:03.210,0.15933559201999029,-0.27224965597241685,9.606908878503967,-0.0008492047665632509,-0.551916307094727,-0.27474845993651753,normal
2024-01-01 00:00:03.220,0.2973663844684492,-0.2918087087037393,9.583348236585158,1.460719978134159,0.6971504413506662,-0.5448369821543273,normal
2024-01-01 00:00:03.230,0.42914944393764687,-0.09955716210321124,8.91085418315097,0.15416769611574846,0.01776580766874377,-0.0032730722143093946,normal
2024-01-01 00:00:03.240,-0.023718581795326432,0.49038792414660903,8.494332019299206,-0.11029650669362588,0.6625817881191736,0.2686987371669172,normal
2024-01-01 00:00:03.250,-0.19360891809270206,-0.01070590462792321,8.017499328773493,-0.025861207911113612,-0.043120493643884907,0.10609213672339765,normal
2024-01-01 00:00:03.260,0.3611996164265942,-0.13852294600226558,7.343794093931581,-0.5165970161652205,0.08302160013654161,-0.48489433789922914,normal
2024-01-01 00:00:03.270,-0.08274199816845267,0.23797651698063998,6.432838909332312,0.26548490220179616,-0.1265460235215049,-0.11261182885512899,normal
2024-01-01 00:00:03.280,-0.26033246208722066,-0.47089701755279095,5.629700791286171,0.2617441644651541,-0.019530032284479876,-0.021091126751076165,normal
2024-01-01 00:00:03.290,0.1778078431556327,-0.20094462838713217,4.979927212733628,-0.14135452238769727,-0.26137028969173776,-0.18255505170543865,normal
2024-01-01 00:00:03.300,-0.05154707515987303,-0.08874581505213745,3.416635456097981,-1.054770643445864,0.4476331415820883,-0.30920910861091705,normal
2024-01-01 00:00:03.310,-0.02287749944114808,-0.20507745851505893,2.5146508236343084,0.21581067452010022,0.2083073947943732,-0.08490375755404961,normal
2024-01-01 00:00:03.320,-0.025580687933504636,-0.2529329912568759,1.5776058470823269,0.6282091952915068,1.3227362791313138,0.038543837812816006,normal
2024-01-01 00:00:03.330,0.23273868403849562,0.1591998289281027,0.22851026405527958,-0.3335533086264471,0.9452830361844597,-0.09870889390359619,normal
2024-01-01 00:00:03.340,0.04269147654695235,-0.3542930202772556,0.8742241394091163,0.2900259662881658,0.3060340645228735,0.1544972205199099,normal
2024-01-01 00:00:03.350,0.03686099572957249,0.3909605282311558,1.779742911960461,0.6466453710028239,-0.3693525289080721,-0.25670475701262696,normal
2024-01-01 00:00:03.360,-0.42064143315371405,-0.5343879878237686,2.7628530514115535,0.19605641322570647,1.2646791292016806,-0.549626299372704,normal
2024-01-01 00:00:03.370,-0.423107542025322,-0.05453111670083062,4.011289069396386,-0.5623200847690595,-0.12265434379021685,0.7795939121201916,normal
2024-01-01 00:00:03.380,-0.33967298351907416,0.37153226013720647,4.971187014915554,-0.2451360352469589,0.5094414341008217,0.41266538339080244,normal
2024-01-01 00:00:03.390,-0.19290906227891794,-0.16389185700323441,5.661568430753982,1.043040529057288,0.05417833121510041,0.1551704713035093,normal
2024-01-01 00:00:03.400,0.3468803328909777,0.1452396540425044,6.595649912101888,-0.334671177496826,0.0745642284214412,0.20448033565219034,normal
2024-01-01 00:00:03.410,-0.1692590535418259,-0.7720163101959696,7.488615128536733,-0.055530024013286314,0.3769546382212876,0.43570460485575796,normal
2024-01-01 00:00:03.420,-0.12848755758227073,-0.164786537715997,8.020740821072618,0.1583323985926439,-0.9505311980926958,0.21772694427072595,normal
2024-01-01 00:00:03.430,0.6139675609424864,-0.05519080302750844,8.428958199687502,-0.4133917406699637,0.5149893361782056,0.09502088530044432,normal
2024-01-01 00:00:03.440,0.11931440840128438,-0.5586448123075423,9.251196171783716,-0.9136753489099556,0.09750380058811293,0.3287846716606311,normal
2024-01-01 00:00:03.450,-0.10604066310701155,0.54791369469546,9.281667493809199,0.3738734377488931,-0.004797577672783092,-0.619938162996402,normal
2024-01-01 00:00:03.460,0.2142581679010193,0.17386877412481436,9.82776170156249,0.20644032479772478,-0.12991447444536838,-0.1465644396214336,normal
2024-01-01 00:00:03.470,0.04708958296570104,-0.33850972543661473,9.909827059129057,-0.11115024955641578,0.6035886196887252,0.41988773066747986,normal
2024-01-01 00:00:03.480,0.4757135996830041,-0.030549311763827875,9.603652745254298,0.5190210158043106,0.501141333936082,-0.03347741182164928,normal
2024-01-01 00:00:03.490,0.23972990305389155,0.3580087337199828,9.478358757195341,-0.6884984744060398,0.8871490502299902,-0.19684194431814986,normal
2024-01-01 00:00:03.500,-0.22065273943696087,0.1764187604720336,9.232285300451823,0.5752931486777341,-0.5315589517021612,0.22620090812332835,normal
2024-01-01 00:00:03.510,0.39950506108639156,-0.568043060728055,8.973790321673155,-0.21629291185005167,1.1444277244069718,-0.5285286798131963,normal
2024-01-01 00:00:03.520,-0.3045233511547071,-0.13671870736564642,8.450807995129606,-0.36442399574180806,0.11317414921721748,-0.23023314606362597,normal
2024-01-01 00:00:03.530,0.648398958878026,-0.31680125223808026,7.523923997800823,-0.3494798753408833,0.5593245034530634,-0.2829911436144379,normal
2024-01-01 00:00:03.540,0.2144034533945742,0.2280426719745789,6.899550413146579,-0.6170090065704843,-0.3729486746895413,0.09775218690214087,normal
2024-01-01 00:00:03.550,-0.5487557132095489,0.7787058357081451,6.337973064785187,0.4052173403101261,-0.15185216407144694,0.2762937250986931,normal
2024-01-01 00:00:03.560,0.7406866757791831,-0.4857878238734285,5.778437399583098,1.1290887592932746,-0.056016014126979534,-0.11458991726474958,normal
2024-01-01 00:00:03.570,-0.1476437378749026,0.6963698597536921,4.385723742213999,-1.2097861469425106,-0.13027489190219638,-0.005432842043208025,normal
2024-01-01 00:00:03.580,-0.6138012088331942,0.17901413556318843,3.386417539556968,0.7686247544513891,0.8027267281398762,-0.27093416301887596,normal
2024-01-01 00:00:03.590,0.6633658474980716,-0.3637409710008079,2.1885535254786777,0.6284607362678805,0.09922966108305305,0.471333897910321,normal
2024-01-01 00:00:03.600,-0.1866604562434429,-0.4483327059186824,1.2464481971945152,-0.35566412856941365,0.9387122589209522,0.11762453182753746,normal
2024-01-01 00:00:03.610,0.027273962404716048,0.04284046076637295,0.20813722546973348,0.4596944388135804,-0.1703550522609342,-0.7491830682986046,normal
2024-01-01 00:00:03.620,-0.0012168180077758255,-0.07139764298113836,0.7986999233500378,-0.44325306306772855,0.2502231560596727,0.01158320733440977,normal
2024-01-01 00:00:03.630,0.09751024054196378,-0.15449710555187354,2.106186068439036,1.6773954262709534,0.0618283787707016,-0.017986478072378378,normal
2024-01-01 00:00:03.640,0.24947970404748662,0.03701215512505427,2.879564413657976,-0.13262886330489587,-0.0747170962650127,0.14070066020658234,normal
2024-01-01 00:00:03.650,-0.4652275926149228,-0.09860652440535415,3.9475533480583316,0.7768913782636082,0.9678741988118009,0.0004609395085214208,normal
2024-01-01 00:00:03.660,0.8617957923859337,-0.2769363982706357,4.861486467069964,-0.024963776479765137,0.3191697513076951,-0.1373904059513584,normal
2024-01-01 00:00:03.670,0.27711002413942,-0.31540574968881907,6.063583978641143,-0.2705052088954183,-0.1528509774810797,-0.009583232473699313,normal
2024-01-01 00:00:03.680,0.07410682314507441,0.25983075992219284,6.482940129838875,-0.7004312747455084,-0.8904682538245441,-0.24491723557012754,normal
2024-01-01 00:00:03.690,0.2659912017881239,0.08889369963359754,7.8593683084372925,-0.001169254910395515,0.519913780765406,-0.28365548979141963,normal
2024-01-01 00:00:03.700,0.10808689190440471,0.3179667566560465,8.49867159007109,0.24921269847820857,0.4784544912109397,0.22097742674889612,normal
2024-01-01 00:00:03.710,0.320844186940337,-0.898765753178004,8.848890497067856,-0.8696031648627816,-0.607733666603803,-0.7872884245176809,normal
2024-01-01 00:00:03.720,0.2633450008049973,0.5000432117117197,9.277817939643834,0.5122687221798933,-0.6189565476693563,-0.18063300563979162,normal
2024-01-01 00:00:03.730,0.3184152985694798,0.03322444538728011,9.497425857331834,0.22112882972980621,-1.158658736848486,-0.37292233725718066,normal
2024-01-01 00:00:03.740,0.21296876269154233,0.11197217522878825,9.74282165756908,-0.3711164717782044,-0.5792507266057378,0.37389021444090464,normal
2024-01-01 00:00:03.750,0.018284670358299795,-0.23345663489169444,9.712918567088536,1.1787017335213579,0.4876053882012818,0.2630823233174141,normal
2024-01-01 00:00:03.760,0.1279653399693538,0.2291813353020965,9.45127596143052,0.19034001615333038,0.24561045742999152,0.30822879206838066,normal
2024-01-01 00:00:03.770,-0.06557282366786935,-0.1380170572926708,9.810940315639561,-1.075399075877013,0.6611542549476405,-0.20054357044259397,normal
2024-01-01 00:00:03.780,0.20009783209832976,0.1217436612616371,9.273373760355897,0.4730414979262387,-0.30074636987513526,0.5726982081680353,normal
2024-01-01 00:00:03.790,-0.377873260432169,-0.3438354346754627,8.76762379373906,0.7066417538134526,0.6025351503020804,0.12218110450981243,normal
2024-01-01 00:00:03.800,-0.40812805640675365,-0.14313029503042107,8.490027823686288,0.4743248634051984,0.4009957618415479,0.7400885301349933,normal
2024-01-01 00:00:03.810,0.30048290351967855,0.1504586208293979,7.981783870624119,0.5063523045268996,0.7590580576978873,0.05662535731641109,normal
2024-01-01 00:00:03.820,-0.44967870597478715,-0.18892769899984732,6.806158155608829,-0.3071523227464575,-0.6061314708856964,-0.2736012792535026,normal
2024-01-01 00:00:03.830,0.12537669184633488,-0.07068524870792998,6.200784305395642,0.2052228687269638,-0.8392379767495731,0.06370579582035477,normal
2024-01-01 00:00:03.840,0.22534092127964128,-0.35797306597548784,5.0519278617783065,0.6161489758034486,0.027426145135281018,0.39431371102947826,normal
2024-01-01 00:00:03.850,-0.6852929061882996,-0.5642256796009528,4.174867191735492,-1.1968549157412272,-0.6891903271588086,-0.5663533512047663,normal
2024-01-01 00:00:03.860,0.05588554551450651,0.19109045967221402,3.225170894028646,-0.9002779702538073,0.04984840436803067,0.5542649396673686,normal
2024-01-01 00:00:03.870,0.4872320492037187,-0.36306840357150316,1.9847866910290306,0.596198833291136,-0.24094770061111806,0.34648366772418004,normal
2024-01-01 00:00:03.880,-0.1817736756191284,-0.017239764959541184,1.020460057871289,-0.007336465216380471,-0.4824271536557853,-0.0684502607561151,normal
2024-01-01 00:00:03.890,0.4698606363410023,-0.09242948783498556,0.13252626056063696,0.015984963179610283,0.9697454488505161,-0.12371781223902789,normal
2024-01-01 00:00:03.900,-0.3583625454895169,0.011312813327885873,1.2550231258105793,0.013535976700630335,0.9169596627178411,-0.1869061099247155,normal
2024-01-01 00:00:03.910,-0.6989800567897478,0.08934174778143707,2.149010055813306,-0.08220910778335093,0.5426679068927304,-0.005443587131586365,normal
2024-01-01 00:00:03.920,-0.31074256345814405,0.20279065736049304,3.307366720609016,0.3250666921863868,-0.10603885429711529,-0.1999678932128043,normal
2024-01-01 00:00:03.930,-0.2864289734014997,-0.3356932463491636,4.4373179769550095,-0.5831820079248495,-0.47848512757784895,0.14583344757486238,normal
2024-01-01 00:00:03.940,0.2330863382484767,-0.16985879300483875,5.728537778437806,0.41278796542495966,-1.083260512527447,-0.686263687998978,normal
2024-01-01 00:00:03.950,-0.12310653404858697,-0.15012000965900468,6.171846707265551,0.4693936670901976,-0.9700413898340328,0.27921722583495867,normal
2024-01-01 00:00:03.960,-0.25336515916014274,0.5645751368574893,7.022090246665554,0.42409882140652144,-0.6121442864210642,-0.24478022710799802,normal
2024-01-01 00:00:03.970,-0.26379317461588586,0.1287617099340133,7.525797883397557,0.7216925966718999,-1.2123652569848806,0.26956192159409537,normal
2024-01-01 00:00:03.980,0.35140202819891775,0.5526475801372297,8.463460000127576,0.2896659082542665,-0.2997931420169802,-0.6863647992997505,normal
2024-01-01 00:00:03.990,-0.6254811153398803,0.07009963503627877,8.991872149905229,-0.4283281976405969,0.11608403744484891,0.82090722594565,normal
2024-01-01 00:00:04.000,-0.47354487757194125,-0.14772512772037102,9.250145732366885,-1.1069492858807661,-0.04899402254524271,0.192980313016575,normal
2024-01-01 00:00:04.010,-0.22413622344234732,0.36834170857220383,9.420989402243357,-0.2341556277374407,0.19026141567212074,-0.2831880169346758,normal
2024-01-01 00:00:04.020,-0.06513780961135604,-0.22030356215403082,9.594399533821102,-1.426670722207341,0.0031635856243693266,-0.74359447660271,normal
2024-01-01 00:00:04.030,0.16367067357332857,0.058459611134202685,9.693133111601442,-0.08983744506085527,0.5753244384276672,-0.44144827687472776,normal
2024-01-01 00:00:04.040,0.3028938169870876,0.013626808869209145,9.636595263465058,-0.5219008695421377,1.2213213570347627,-0.06832566187503478,normal
2024-01-01 00:00:04.050,-0.263014210285652,0.08397073057151075,9.577150486076933,0.017145762496076855,0.2353100222826095,-0.6542079931209852,normal
2024-01-01 00:00:04.060,0.10859791073712201,-0.08876426064839409,9.462289195319372,0.1326142652415697,-0.3598981849687986,0.0951478014188096,normal
2024-01-01 00:00:04.070,-0.3694238281357299,0.027480428081510095,8.830321890078528,0.35808488056491766,-1.454038879176502,0.0019607992349334365,normal
2024-01-01 00:00:04.080,0.7767434872553319,0.6886349141694473,8.106579752274929,-0.7569731963525699,-0.05519513730720692,-0.11618716528288467,normal
2024-01-01 00:00:04.090,-0.035263548412573155,-0.4073339390310331,7.319439274326144,-0.6079191448811532,-0.5184630618894032,0.28973008362663993,normal
2024-01-01 00:00:04.100,-0.47228896950100485,-0.338245715342353,6.713792993747387,-0.9761817324023925,0.8227781632284473,-0.04110306651337157,normal
2024-01-01 00:00:04.110,0.29347459479463944,0.2965582603340465,5.646695125165898,-0.2203533046742368,-0.5349866418286335,0.2796887163740472,normal
2024-01-01 00:00:04.120,0.018558658693064813,0.07012033989932175,4.765716206441092,-0.24992682231324553,-0.7159021831875249,0.04780784212034823,normal
2024-01-01 00:00:04.130,0.34317592389175994,0.153580440137258,3.822831754422003,-0.47438100671848404,-0.21957622283691217,0.3769968197817782,normal
2024-01-01 00:00:04.140,0.24984131323056336,0.3218242649046316,2.8834968118204314,-0.4161182349990589,-0.004920908435582333,-0.5960743149876027,normal
2024-01-01 00:00:04.150,-0.5552630944384646,0.12400421967260054,2.250590241098304,0.446083686036748,0.3289573575215616,-0.17345348322222387,normal
2024-01-01 00:00:04.160,0.19642996837400528,-0.20445945767137153,0.8134913528673096,0.7802325557942662,0.28511360303168426,-0.2715459457937655,normal
2024-01-01 00:00:04.170,-0.14148561969668175,0.21859750032697683,0.10321744167534358,-0.09555489936144823,0.10192309892530274,-0.11729288403469884,normal
2024-01-01 00:00:04.180,-0.17365434956114445,0.742866574726143,1.444385356195396,0.19595765129294068,-0.16238318591669743,0.13104345652238428,normal
2024-01-01 00:00:04.190,-0.015474152750244009,0.49505730632279143,2.4663701392254214,0.10180425441963017,-1.2218076144789247,-0.1749137894462219,normal
2024-01-01 00:00:04.200,-0.06283377310448678,0.25881733462521817,3.419754071833728,-0.25974401362673644,0.5287135634450197,-0.4588600346715454,normal
2024-01-01 00:00:04.210,0.0459601478108046,0.44715252250981524,4.607955433957122,0.42954935662193644,0.12344694974028886,0.5291823888145976,normal
2024-01-01 00:00:04.220,0.30412382757003725,0.16226530348949755,5.796543163162259,-1.8989504048810677,-1.0284228218287612,0.35474327577362413,normal
2024-01-01 00:00:04.230,0.006056848562004829,-0.3512749399108836,6.7330578628263575,0.4242045895401712,0.23938793512477533,0.4446953769380664,normal
2024-01-01 00:00:04.240,0.08749305933481029,-0.07045746655703304,7.026545563848614,-0.21918656950920667,0.10287795217528072,0.1829299223804893,normal
2024-01-01 00:00:04.250,0.4521759933504133,-0.21073102472364624,7.692839254626104,-1.2944934811505509,-0.12059641070229339,-0.029765050868368344,normal
2024-01-01 00:00:04.260,-0.054972916869637865,-0.2680577321902132,8.423146745089403,0.020102094450624157,-0.242985166863924,-0.28626105584713146,normal
2024-01-01 00:00:04.270,0.1379313229915523,-0.0508911285391164,8.860523175639523,0.052311259419535225,-0.798735042157641,0.21447559628108873,normal
2024-01-01 00:00:04.280,0.045924896567364454,-0.25043263601202786,9.408564409877513,1.5753535943010266,0.6408452359003561,0.3232332637900477,normal
2024-01-01 00:00:04.290,0.3774559535284727,0.142943416677789,9.51450985810991,-0.21676816163727136,0.3946771057457116,0.36352037710974033,normal
2024-01-01 00:00:04.300,-0.2587608013207609,0.1061306612962197,9.543687714587946,0.0517003248884541,1.5695960393314539,0.18899645442411875,normal
2024-01-01 00:00:04.310,0.0986773942504481,0.3209893112345933,9.841976397905567,-0.5873421440411934,-0.30450563674385267,0.176519234073644,normal
2024-01-01 00:00:04.320,0.3394451292954446,-0.1187333303760625,9.784199988921678,0.3640110015570871,0.006529875812243032,0.205976441282844,normal
2024-01-01 00:00:04.330,0.1124802529846319,-0.07648418332161712,9.348842343691407,-0.37566091645544114,0.28947965865426917,-0.7090008738830049,normal
2024-01-01 00:00:04.340,0.2154442271554555,-0.10795424044345123,9.079290729218135,-0.18573143179637042,-0.24805130015915008,0.31762280773848284,normal
2024-01-01 00:00:04.350,0.001804468591966035,-0.35858339550614143,8.613586056083362,-0.35653763646845904,0.3331541945239502,-0.04043893206710315,normal
2024-01-01 00:00:04.360,0.19908921304673835,0.37725013100889315,7.991723525608818,-0.7174338259728087,0.6807337505274126,0.005202978230624033,normal
2024-01-01 00:00:04.370,-0.0015461359704186,-0.0745936119336931,7.38887389165699,-0.5182863816935103,-0.18497031135276315,-0.21353056743583018,normal
2024-01-01 00:00:04.380,0.29893702824553875,-0.399090996169668,6.602690914038124,0.5127914553627416,-0.14367165114738414,-0.6112065683848406,normal
2024-01-01 00:00:04.390,0.022500407063729327,0.01485823545384935,5.649503842389045,1.1317732803217624,-0.4158684261618023,0.5263284435647101,normal
2024-01-01 00:00:04.400,-0.09767568492338236,-0.1334767573947795,4.840424815614175,-0.03833978906385533,-0.3552598040920328,0.1832045074052333,normal
2024-01-01 00:00:04.410,0.05780977526796212,-0.05192402112154202,3.443493486505445,-0.253746180135221,0.0637962816081387,0.46316079295697193,normal
2024-01-01 00:00:04.420,-0.0862062633553103,0.162024829720629,2.9519558741267793,0.582742010667302,0.41633395909760557,0.08764610427279496,normal
2024-01-01 00:00:04.430,0.842102402938422,0.03915102904441916,1.6557175179404486,0.12752891826811355,-0.4138403422244322,-0.3313617193715264,normal
2024-01-01 00:00:04.440,0.2304337301172474,-0.30534375310332346,0.5646464592458944,0.005583190357738201,0.03861286188468306,0.14959406306301237,normal
2024-01-01 00:00:04.450,0.09207794073525194,-0.17977371980589735,0.5316742007696136,-0.7615486607556251,0.05711936711715114,-0.050944740644217903,normal
2024-01-01 00:00:04.460,-0.033405797103168176,0.47681152943213784,1.7348224012193805,0.08041829923912899,-0.15577381783216243,0.1544776883924457,normal
2024-01-01 00:00:04.470,0.2941429444119137,0.4206411642142486,3.111487729137826,-1.4373451394002812,1.2317209048824629,-0.2552958262516378,normal
2024-01-01 00:00:04.480,-0.10513641962204626,0.664551402626352,3.7038298158795815,-0.23339537073726063,0.25761747260612927,0.0031932999666983083,normal
2024-01-01 00:00:04.490,-0.08142809280790458,0.0020785774197580507,4.874803732521518,0.004734736944296677,-0.0099974474018711,0.015048084565274964,normal
2024-01-01 00:00:04.500,-0.13401749359499276,-0.11948900648377991,5.652529267929219,0.10058882148859123,-0.6227731749149014,0.3261536261593436,normal
2024-01-01 00:00:04.510,-0.07691651964995792,0.6881672856567796,6.502906074195309,0.4138711179987593,0.3102700584276954,-0.2612667623334192,normal
2024-01-01 00:00:04.520,-0.0639189538422914,0.11388595604390647,7.145540595563425,0.22402259782159945,-0.14921716797798248,0.014171820767268046,normal
2024-01-01 00:00:04.530,-0.2820816643961579,-0.26954409183595623,8.173020472430178,-0.46980573051078556,-0.19929653512361523,-0.011827387636771438,normal
2024-01-01 00:00:04.540,0.11952897460107668,-0.22625129634940538,8.724515461690693,-0.09273149405859077,-0.223538258322184,-0.3802400492468059,normal
2024-01-01 00:00:04.550,-0.311984098842939,-0.16656122619682262,9.176173550583922,0.28605248070192685,0.6852571168049599,0.7053444435108035,normal
2024-01-01 00:00:04.560,0.1765746958203041,0.6286266388100819,9.729473236591959,-0.515898532646405,-0.9928069522233598,0.04753220408812449,normal
2024-01-01 00:00:04.570,0.36556891126540353,-0.1137821945069534,9.658811051752659,0.05560466240830054,-0.02088120636745137,0.2480539986480667,normal
2024-01-01 00:00:04.580,-0.17642799699026207,0.5245688112870414,9.50397143193167,-0.3361133676592342,0.18563016424248002,-0.07296312791363956,normal
2024-01-01 00:00:04.590,-0.14309707111006856,0.0357893833528567,9.759229768657256,-0.2204716055402893,0.19897716355400044,0.7123439756812096,normal
2024-01-01 00:00:04.600,0.32474462329320936,-0.3884175425430841,9.327939273710683,0.46843744718640445,-0.6838433720895971,-0.215629320873654,normal
2024-01-01 00:00:04.610,-0.1624850856797473,0.31298404256936674,9.252413199568268,-0.9196271862416872,0.6047282897838997,-0.10631911516693024,normal
2024-01-01 00:00:04.620,0.04746712212187043,-0.19298848326925735,8.915812454336173,0.9997699958862543,-0.09888524965937484,-0.06393264646546241,normal
2024-01-01 00:00:04.630,-0.004699894028207454,-0.13544991180971072,8.471561856294093,0.14636419373706808,-0.716203876068891,-0.4076554039613961,normal
2024-01-01 00:00:04.640,-0.03832453597625616,0.44036886917977064,7.647705285860475,0.6750718152997321,0.3874322031464729,0.773403260378224,normal
2024-01-01 00:00:04.650,-0.21962904347519313,-0.21548579839653628,7.387850652753664,-0.5663021952184365,-0.8844830141993352,-0.20276982517946698,normal
2024-01-01 00:00:04.660,0.21155942518113896,-0.5029935031532231,6.208991406269801,-0.36861110743886144,1.4600796517464347,0.19700015246081395,normal
2024-01-01 00:00:04.670,0.043631665057518455,0.12672273207319207,5.118283744085189,0.12031662267930736,0.2716049863763648,0.23944065129244704,normal
2024-01-01 00:00:04.680,-0.09942878684873567,0.2639428567425248,4.511307251172964,-0.011706717690107256,0.42686875738183844,-0.20293125296658007,normal
2024-01-01 00:00:04.690,-0.07238322811698066,0.025492603521403975,3.409519319997703,-0.3502786471620693,0.1735941098418679,-0.9636438867373449,normal
2024-01-01 00:00:04.700,-0.32442720940052056,0.12142463868070001,2.4809273213607073,-0.1005274379756117,0.7846548157838028,0.5514758324020154,normal
2024-01-01 00:00:04.710,0.1885463587557233,0.3892030255869642,1.3962132876758957,-0.21200241823707236,0.11848210921968835,0.35393870766850877,normal
2024-01-01 00:00:04.720,0.16113280940011704,-0.2032960689196812,0.140324604601887,0.8416877029192514,-0.03174472069196925,0.27568477095681226,normal
2024-01-01 00:00:04.730,0.4799531667062823,-0.27981837424187167,0.932826248622806,-0.533178634860983,-0.5379077663795353,-0.027245387656734496,normal
2024-01-01 00:00:04.740,-0.20901016899562283,-0.10775760771905256,2.1236116870973873,0.5214545846487381,-1.4944847173257096,-0.1355256540663346,normal
2024-01-01 00:00:04.750,0.5520722044408324,0.03848349531499396,3.0728142836279426,-0.599350961509264,-0.36230592198907713,0.4087874209061585,normal
2024-01-01 00:00:04.760,0.048950134807332714,-0.03186992334676646,4.110923368109515,-0.11080933844951897,1.3336366460166305,0.22195414911516195,normal
2024-01-01 00:00:04.770,0.41223393232633576,0.34166784571330094,5.022965961854012,-0.4529017014677579,-0.04965280583339679,0.19132334539614004,normal
2024-01-01 00:00:04.780,-0.4834659938524898,-0.06613642569056821,5.9024491161658466,1.2069912224007193,-0.5282873479066428,0.2546960953319435,normal
2024-01-01 00:00:04.790,0.0901335144239473,-0.4603643956472665,7.044707813754251,-0.45853525040997634,-0.7268018147517181,0.2010781394894908,normal
2024-01-01 00:00:04.800,0.19293442424680407,-0.1453659120030206,7.442266070356421,-0.3177680086996212,-0.02325771934639116,-0.008480333287488878,normal
2024-01-01 00:00:04.810,-0.45573688167821214,0.4045787147696919,8.234444308453169,-0.06690419134628836,-1.5818541823100294,0.14178980029511679,normal
2024-01-01 00:00:04.820,0.1483985155468915,-0.2715029741201917,8.817124824254089,0.48289913218778124,-0.5344016973644082,0.2585297857278823,normal
2024-01-01 00:00:04.830,0.3077120204015602,0.24436017331681606,9.390238017934642,1.348962817719742,0.3852108638065245,-0.0011190561266268908,normal
2024-01-01 00:00:04.840,-0.251603706689776,-0.14300894672099035,9.588329651233973,0.2689551690030886,0.9691090684359522,-0.4293944315546364,normal
2024-01-01 00:00:04.850,0.3005109212046225,-0.28080697898367346,9.626331020215424,0.4390819769452004,-0.09584572408737783,0.2620428703483921,normal
2024-01-01 00:00:04.860,0.13653418207269852,-0.1467880282415948,9.834335549586186,0.13118555250731861,-0.06131664847869902,0.09305278838320646,normal
2024-01-01 00:00:04.870,0.3101774107922605,0.05512353613371803,9.757561817032668,-0.27917066579105154,-0.5623738451200284,-0.16854866809660918,normal
2024-01-01 00:00:04.880,-0.09736903618591572,0.2994830240761311,9.499892838849382,0.8521834186618701,-0.353824186193236,-0.5541749211781882,normal
2024-01-01 00:00:04.890,-0.32968300354915137,-0.5113307005623478,9.30551251862541,0.41663656111608177,0.9971830427618957,-0.4161328801397833,normal
2024-01-01 00:00:04.900,-0.15011807070324373,0.5279403964856734,8.623956502033888,-0.15807658907425295,0.03291509230000931,0.35272031503304435,normal
2024-01-01 00:00:04.910,0.05893841713359879,0.47455314821462635,8.543389033365875,0.14643225835766674,0.8898554928165672,-0.9586747727314352,normal
2024-01-01 00:00:04.920,-0.6444698594300884,0.31491925576172025,7.443601477461323,-0.7893750754845911,0.5520400132482192,-0.5363897597168694,normal
2024-01-01 00:00:04.930,0.123549194724173,-0.3477448896643654,7.300781972566129,-1.2898742754007904,-0.16363390174270082,-0.19124985308232034,normal
2024-01-01 00:00:04.940,0.003548909417969516,-0.07538947169226189,6.184493389515215,-0.5563417370539632,-0.0362958191684587,-0.21794028455050307,normal
2024-01-01 00:00:04.950,-0.03804456191939889,0.3464062645892219,5.260443530611036,-0.1968608169295773,-0.16180532701936903,-0.06807848621833207,normal
2024-01-01 00:00:04.960,-0.8639339986328665,0.4207099080501989,4.168245494948832,-0.03535865412921015,-0.10289615688496406,0.1692080467221873,normal
2024-01-01 00:00:04.970,-0.32403743354948694,-0.6743641628692535,3.4228355800279515,-1.0577009873035776,0.19912635338868945,-0.3272181611818003,normal
2024-01-01 00:00:04.980,-0.09838648833274846,-0.08320520142060339,2.302044506103905,0.3878923847694723,0.18862944467188536,-0.1613782821475105,normal
2024-01-01 00:00:04.990,-0.1584278728066641,-0.26094160537762096,0.9404011613769064,-0.7454307607305497,-0.5120970721428763,-0.0054636995405987245,normal
2024-01-01 00:00:05.000,0.09814202627470277,0.5460606624017109,0.10095767245576115,-0.2485203102773346,0.819860533141879,-0.3724285410880592,normal
2024-01-01 00:00:05.010,-0.2796798809929592,0.3359212063146089,0.9937140455622913,0.5028164668977573,-0.6680688146453343,0.21768719324332975,normal
2024-01-01 00:00:05.020,-0.24830002065493298,0.12230325458118833,2.005363830780906,0.29842387727391856,1.0571303437320714,-0.3960877681280359,normal
2024-01-01 00:00:05.030,0.24319102410916296,0.44445832181886813,3.3081247764557653,-0.9780905125275836,-0.2009972631497892,-0.015374211933618565,normal
2024-01-01 00:00:05.040,0.18174372229086252,0.05998316037373068,4.476554089826672,0.8573563695902454,-0.027949431051872746,0.5655779610285402,normal
2024-01-01 00:00:05.050,-0.0945873196191625,-0.43722055438676216,5.172451563592535,-0.8609220349522216,-0.06463873657130666,0.28789619403191896,normal
2024-01-01 00:00:05.060,-0.19795946304369952,-0.07435023768143427,5.938794172113277,-1.1107064050925526,-0.40691170041330404,0.44375419135552646,normal
2024-01-01 00:00:05.070,-0.5525647889189695,0.008981697678892939,7.134866666768972,0.16107126274453828,-0.08634689532435062,-0.8084927188941007,normal
2024-01-01 00:00:05.080,0.12305664946811602,0.22931339223533775,7.7756851345339015,-0.6395583342728214,0.7019862429237335,0.6054473360859244,normal
2024-01-01 00:00:05.090,-0.16254880908571162,-0.32088807374020334,8.307649156595879,-0.1514065027974368,-0.4964033630573631,-0.13834492772123586,normal
2024-01-01 00:00:05.100,0.4839389224665172,-0.04857088167200726,8.999046733241473,0.4783380916103191,-1.3923057975724995,0.25487966192922484,normal
2024-01-01 00:00:05.110,-0.20943574445413285,0.21566141745958142,9.375193618880779,-0.3150631197399343,0.8636808333690464,0.05282827039661375,normal
2024-01-01 00:00:05.120,-0.0028960269886734165,-0.33631601063914235,9.547651225298331,-0.8550508040731281,-0.224550350651249,0.47268946492059677,normal
2024-01-01 00:00:05.130,-0.2069997532764863,-0.04379865513726984,9.5252118955101,-0.19821365580970013,0.08956812209856038,-0.5413943509683781,normal
2024-01-01 00:00:05.140,0.08344020156261199,0.6242201075844419,9.74480200894974,0.13506257901420538,0.6021133489653836,0.45073283850636464,normal
2024-01-01 00:00:05.150,0.8066111609406253,-0.006518566228560301,9.907046890435275,0.19244576513702752,0.20885427313145924,-0.3887172483238354,normal
2024-01-01 00:00:05.160,-0.1016154352190879,-0.4363582853922921,9.532959587945957,0.06561446891815587,-1.4754958552255253,-0.5774975098207333,normal
2024-01-01 00:00:05.170,-0.2757676005383221,0.21590877207079645,9.284216370309101,-0.22164636249771105,-0.673484328301555,0.3489645108406427,normal
2024-01-01 00:00:05.180,0.11578138587753231,-0.081235266917686,8.8953401597721,-0.7098147966621471,-1.3103167431137386,0.45277873844918975,normal
2024-01-01 00:00:05.190,0.08388137291936344,0.01622637611693474,8.312670836826344,0.5395018045942115,-0.47983077816982567,0.014242894356615245,normal
2024-01-01 00:00:05.200,-0.5137832313434599,0.016206347718262296,7.391535402755171,-0.9973655295917675,-0.8296216589412853,-0.13536042259509912,normal
2024-01-01 00:00:05.210,0.28886372446576797,0.3441140289732782,6.8461327035357815,-0.6089423547927473,-0.17053751777563342,0.08468336495890387,normal
2024-01-01 00:00:05.220,-0.3137790588145675,-0.013504778779123741,5.981098897618985,-0.25622885107203336,-1.0876746000275368,0.2364493578726402,normal
2024-01-01 00:00:05.230,0.28291950583601855,-0.06545686738026071,5.016470384229146,-0.4065802304374974,-0.1408364050423638,0.11162381693601102,normal
2024-01-01 00:00:05.240,0.03349279921359842,0.27551110825744046,3.9509801511056515,-0.5911166807235209,-0.17161413140583562,0.02203897409200519,normal
2024-01-01 00:00:05.250,-0.15712710250610154,-0.13615075153159528,3.137084521700118,0.36703318000897656,1.3161410558270883,0.43051672908545174,normal
2024-01-01 00:00:05.260,0.10460017016451464,-0.24088300500702603,2.02909752665094,-1.2593426579906437,0.030312510749041476,-0.44825511527694983,normal
2024-01-01 00:00:05.270,-0.1900369356449212,0.14049209434535825,0.8735243890702581,-0.3497418641668344,1.3120538922986669,-0.11048223651402908,normal
2024-01-01 00:00:05.280,-0.40989872838666236,-0.17832439816839799,0.250193869169803,0.23119364819411636,0.1698353524942603,0.2785430990152935,normal
2024-01-01 00:00:05.290,-0.1815276282464821,-0.23725719774607262,1.3610672459308426,0.3871255220903613,1.1665506867355844,-0.042690649588550046,normal
2024-01-01 00:00:05.300,-0.03366340226551487,0.3294415584121562,2.6960944892674026,0.21751592176798595,0.008737467969843935,-0.5158084373022604,normal
2024-01-01 00:00:05.310,-0.3757702132808054,0.004255630588206695,3.488353928284932,-0.2007701060934288,-0.8729166661216201,-0.6373073215884257,normal
2024-01-01 00:00:05.320,-0.0033421574604991884,0.018857334839356713,4.3807816443913605,0.12563882199623536,0.2060883502487576,-0.4387182136872663,normal
2024-01-01 00:00:05.330,-0.3445768339942673,0.16254391176180688,5.551186830305507,0.04656740416185232,0.0017441940038161767,0.23108351755452938,normal
2024-01-01 00:00:05.340,0.16741980208341456,-0.16809733625896622,6.491135439327251,0.059385570542343835,-0.331799974291468,0.6573266395317542,normal
2024-01-01 00:00:05.350,-0.025752934941545316,-0.24176588901820817,7.097250044375073,0.3932821869934291,-0.7718485130210303,0.6081554029388158,normal
2024-01-01 00:00:05.360,-0.11869771429183748,0.3071465164133794,7.604339051027973,0.23041692274484227,-0.08684238541612169,0.5887659826062303,normal
2024-01-01 00:00:05.370,-0.733417621539987,-0.18150250033341944,8.596087878709808,-0.24034271114020692,0.4143878004127987,-0.07911894646518121,normal
2024-01-01 00:00:05.380,0.06810182105197032,0.028202439069799537,8.967611763166666,-0.25150264950888485,0.27498556304326366,0.13605861765163796,normal
2024-01-01 00:00:05.390,-0.6489850621885982,0.11545313106639357,9.154264418497165,-1.1794536016961252,0.6336957812497138,0.5982391659886788,normal
2024-01-01 00:00:05.400,-0.2185654267951899,-0.18580422396949434,9.83486027695531,0.2218982651070835,-0.5989204419241012,0.14724475448586974,normal
2024-01-01 00:00:05.410,-0.460317010286015,-0.3067239569059989,10.0940135304129,-0.17542948593366528,-0.957352192988981,-0.16667916096710286,normal
2024-01-01 00:00:05.420,0.4232963651906679,0.4735262307319102,9.750070854133607,-0.4466619459433762,0.04493932812995384,0.1810848431912167,normal
2024-01-01 00:00:05.430,-0.05647833033003152,-0.23647247057596038,9.762602295309591,-0.10118869432066457,0.2965813561837619,0.4522095533288009,normal
2024-01-01 00:00:05.440,0.03291553394179239,-0.9059425625512473,9.50921017566085,0.504849042666488,-0.6568048701462083,-0.4137547431146707,normal
2024-01-01 00:00:05.450,0.1507110413503504,0.4034674590301518,9.168816387331232,0.40439171946416197,-0.35981530641138876,-0.37508882120892945,normal
2024-01-01 00:00:05.460,-0.15186872707567584,-0.024093233263562556,8.689318042929912,0.04047235074903312,-0.4888899307838423,-0.222997215817412,normal
2024-01-01 00:00:05.470,0.17577055857606405,-0.2081863246660949,8.145138192152169,0.4727924555576637,-0.3568189817896357,-0.09408562425464825,normal
2024-01-01 00:00:05.480,-0.434252842529019,-0.1329881878249176,7.356635130336485,-0.12921295718668102,0.2529771296769398,-0.04569929008051805,normal
2024-01-01 00:00:05.490,0.24587083162142254,-0.1572754490681286,6.792637540661671,0.5139721439755132,-1.2850921104957915,0.4557589872903788,normal
2024-01-01 00:00:05.500,0.1538766659256471,0.14664389382392648,5.831281352984161,0.28976879744092876,-0.27725581171584956,-0.47247244540962074,normal
2024-01-01 00:00:05.510,-0.004839560879192607,-0.2954640165553096,4.700151048074705,0.0006692012113948004,0.12775390467811248,0.3954662274874748,normal
2024-01-01 00:00:05.520,-0.6079592331126625,-0.36048963893551195,3.9891243996088717,-0.4409402245984217,0.4990609881375847,-0.8446645372850369,normal
2024-01-01 00:00:05.530,-0.5726982194320509,-0.25613192078686736,2.8318255568302133,-0.3562519372643499,0.40616757026819217,0.2492393297688397,normal
2024-01-01 00:00:05.540,-0.3756120912264278,0.24431154321742074,1.872585893765098,-0.3645281511023651,0.1905497793035228,0.07919574119776876,normal
2024-01-01 00:00:05.550,-0.1726422061783864,0.5357214522764253,0.676275155114855,0.010840381153074235,0.8216660431417295,-0.582390202037815,normal
2024-01-01 00:00:05.560,0.1578600946915438,0.39912043987411877,0.7182154526908793,0.27867092240787195,1.8441173144935223,0.18808503757976575,normal
2024-01-01 00:00:05.570,-0.10091899095406082,0.21216598252645705,1.5673755248903158,-0.8500370166211971,0.02213809745927665,0.32964614074445686,normal
2024-01-01 00:00:05.580,-0.10749228662753407,-0.05967596326271285,2.8906834521323694,-1.1292063876837866,0.05620785797295122,0.15199377774676487,normal
2024-01-01 00:00:05.590,-0.051812634195293146,0.06263638650506971,3.6944229667835176,0.2002751862676837,0.25300121616248156,0.22833170964243468,normal
2024-01-01 00:00:05.600,-0.22916305252005728,-0.5592094087961192,4.615309776738787,-0.39368912865556827,0.8335396259262309,-0.11488318500296661,normal
2024-01-01 00:00:05.610,-0.2530016630145379,-0.1612773002830326,5.8304816129834425,-0.6619557205784062,-0.4247196669703062,0.3479504388435698,normal
2024-01-01 00:00:05.620,-0.12046703905388244,-0.39032804368129465,6.719750435209439,0.13329473115248572,0.3573812078384759,0.03917799360517625,normal
2024-01-01 00:00:05.630,0.225561191186413,-0.09485250276298526,7.271604774824294,1.1144173595915177,0.5134553087402345,-0.5862078716368162,normal
2024-01-01 00:00:05.640,0.0038737397807660627,-0.05766269788913733,8.129196140668428,1.1132098334106755,-0.49871044410926935,0.3117280661254184,normal
2024-01-01 00:00:05.650,0.07487637996708293,-0.4639750832547944,8.798859192175373,0.4774815908982976,-0.6578499128727064,-0.9867599333761923,normal
2024-01-01 00:00:05.660,0.3911181456369022,0.3917690199703661,8.925065493140703,-0.5747303682976823,0.07989643165558731,-0.3514299835663066,normal
2024-01-01 00:00:05.670,-0.5008210562911717,0.4586709086956595,9.319322578470137,0.42761758503681724,0.5392475031262679,0.17480219611177786,normal
2024-01-01 00:00:05.680,-0.31584164767282896,0.46564013847239094,9.70021787853538,0.48406659440917976,0.6508818760234325,0.4865307670040495,normal
2024-01-01 00:00:05.690,0.13180797236725106,0.11134504672962088,9.659871618580388,0.035043961114750125,-0.7564028605075971,0.9026004934946602,normal
2024-01-01 00:00:05.700,0.07256074202443,0.11862582591903346,9.516791500467038,1.2431618956919124,0.021655789773961074,0.08290906999660325,normal
2024-01-01 00:00:05.710,-0.1779556887892044,-0.41593753960225155,9.862313678961824,0.5896469910948477,-0.6454634921019688,-0.026525086609422554,normal
2024-01-01 00:00:05.720,-0.4844701350590915,-0.14235408683316028,9.6769459632981,0.40483429572462254,0.6659288063821077,0.2716504675123687,normal
2024-01-01 00:00:05.730,-0.020923481124911717,0.23476244640803912,8.934634460673582,0.3603570128086531,-1.0862493405843188,0.2559143843309728,normal
2024-01-01 00:00:05.740,0.008950946084152844,-0.049028918804385806,8.677114528829614,-0.26981019918633947,1.2064105762189332,-0.328838647083572,normal
2024-01-01 00:00:05.750,0.26248890774256944,-0.01886948859753468,8.043528719557278,0.28672308260665186,-0.9494060297104859,-0.5775678470450032,normal
2024-01-01 00:00:05.760,-0.22856389675005,-0.36952936496010164,7.50403216878324,0.6876471478182521,-0.37310795781425915,-0.10528274571284582,normal
2024-01-01 00:00:05.770,0.03679747232641103,-0.10789498028730389,6.050040483858588,0.3092422041982847,-0.2347320838841657,0.08204571919942408,normal
2024-01-01 00:00:05.780,-0.4392141893474148,-0.13721127796313232,5.820687701470471,0.35509293527517893,-1.092794968142184,-0.5931526203872833,normal
2024-01-01 00:00:05.790,-0.5765579566392762,-0.0017537125785531565,4.653870653573192,-0.6077627970008586,0.5638031031315301,0.12079012098786959,normal
2024-01-01 00:00:05.800,0.5428910497713108,0.23847256309869513,3.8234426058355595,0.0809260749067534,-0.01820922149354922,-0.08624133367958442,normal
2024-01-01 00:00:05.810,-0.14526707024294383,-0.2692963330263534,2.5106477685936417,0.6392158153263869,-0.3180501533255089,0.03580983630398831,normal
2024-01-01 00:00:05.820,0.25633982348159096,-0.6045995526207418,1.5090034262438012,0.5223819956146714,-0.5326907133201026,0.13087546594885396,normal
2024-01-01 00:00:05.830,0.17270091019537928,0.18792281539253056,0.4112678117950442,-0.34171481060516873,-0.3201319859122431,0.14557577139268751,normal
2024-01-01 00:00:05.840,0.02397583887084071,0.014013677243507626,0.4915027265904264,-1.0194634989943478,0.0039463988018998775,0.07539960299628606,normal
2024-01-01 00:00:05.850,0.3618278049528068,-0.09161726738187097,1.9765772899428216,-0.3325973448876988,-0.6965636599539401,0.5345317675977285,normal
2024-01-01 00:00:05.860,0.551167500317937,0.5023446046927429,3.0190490604358984,-0.2951126793609933,-0.618819215831307,0.7987242149893784,normal
2024-01-01 00:00:05.870,-0.12053500935147567,0.2636762502803931,3.9541735348988176,-0.3151133330631188,-0.7432864176830273,0.43708178049936663,normal
2024-01-01 00:00:05.880,0.027589539687370216,-0.06871212341532693,4.729630030732711,0.20073570799972262,0.2958629001252483,-0.5921241698181863,normal
2024-01-01 00:00:05.890,-0.37179888173004916,-0.20194382320200663,5.90448349227574,0.5191430854516913,-1.0853837440526304,0.02683302904113819,normal
2024-01-01 00:00:05.900,0.07083275929083745,-0.46967582623808046,6.764939086900742,0.9177382293341785,0.3261248897295316,-0.15965617401371213,normal
2024-01-01 00:00:05.910,0.15286151022168956,0.4577520597770759,7.467647462195286,0.32181811011983574,0.06921881632822723,-0.44994316769442794,normal
2024-01-01 00:00:05.920,-0.1458215435202658,-0.09001505837102297,8.226523650490543,-0.5647469993693263,-1.1972516907068897,0.5875872362105025,normal
2024-01-01 00:00:05.930,-0.10624401471894278,0.323950268722408,8.701489825365805,-0.09119972515916455,-0.8381075443404724,-0.36254737918399027,normal
2024-01-01 00:00:05.940,-0.19277863861311043,-0.3577702137152545,9.174462593664877,0.018251096149526178,-0.36901616995961606,-0.3834849140737406,normal
2024-01-01 00:00:05.950,-0.06199716896315786,-0.14925032991242682,9.429481299028076,-0.21119565026244783,-0.22842197217332713,-0.6965134032791572,normal
2024-01-01 00:00:05.960,0.324464711393652,-0.6041272715029001,9.66048550109605,0.4161140467952191,0.1910641192067597,0.03241679810455891,normal
2024-01-01 00:00:05.970,-0.05982380795520776,0.3198585495008283,9.610796420103924,-0.46347502848915134,0.6461840386998925,0.15455337346690212,normal
2024-01-01 00:00:05.980,-0.04818284436381447,0.11344381200672023,9.626142279964546,-0.5557429938282007,-0.5584558442178792,0.4513001323291484,normal
2024-01-01 00:00:05.990,-0.2793624527622087,0.037351399403560484,9.523539895545031,0.3268868909399544,0.8020783031352787,-0.03261718011369979,normal
2024-01-01 00:00:06.000,0.14376884876392498,0.40195590675193504,9.272821044993837,-0.3494264113022374,0.5191782913709571,0.4042916820331163,normal
2024-01-01 00:00:06.010,0.09010423127347203,0.5033706550831819,8.696641743928684,-0.5933559206981487,-0.5936616493690521,0.1850713243159456,normal
2024-01-01 00:00:06.020,-0.11753521287961169,-0.17357632834385525,8.203525652524243,-0.7814714636259622,0.7635889514423941,0.13650168358331563,normal
2024-01-01 00:00:06.030,0.4711796006213303,-0.14455771777048623,7.795834095386421,0.7093764333448556,-0.5761807342713141,-0.3883747040244329,normal
2024-01-01 00:00:06.040,-0.4083550523335888,-0.04939438862256796,7.075198148791852,-0.06050157779725412,0.6132001057464607,-0.6043458998806754,normal
2024-01-01 00:00:06.050,0.35287506948301656,-0.47179838913834776,6.234235213182342,0.16384730796300948,0.20136361739297196,0.025391529257225685,normal
2024-01-01 00:00:06.060,0.13820001195746714,0.2907099694801981,5.498683721007241,0.33469001922634206,0.27687557515115696,-0.5491674580833448,normal
2024-01-01 00:00:06.070,-0.35209695730058044,0.4771132571912218,4.577670901628656,-0.28001561811480946,-1.1942366131384927,-0.5323864026999322,normal
2024-01-01 00:00:06.080,0.16582377198905413,-0.2187313359418328,3.4635211350384294,-0.39328887751472374,-0.2636637370158256,0.648802507970129,normal
2024-01-01 00:00:06.090,0.47609379341962865,-0.181467797977224,2.208640808978133,0.7659205354534322,0.2070951593165833,-0.497945543675936,normal
2024-01-01 00:00:06.100,0.33588453493309606,0.4332429762510673,1.182107367644048,0.1352475430281568,-0.16730296657145713,-0.7255436809648245,normal
2024-01-01 00:00:06.110,0.1500605665082757,0.04429070034654111,-0.048920398680053545,-0.46441137027205476,0.6232246224488711,-0.1494965997687535,normal
2024-01-01 00:00:06.120,0.3951802816733274,-0.011066516817552755,0.9933738966949055,0.9200061487920523,-0.6827265134905918,0.06725033663751263,normal
2024-01-01 00:00:06.130,-0.33101039049043424,-0.41664775358173817,2.166044621116975,-0.27048884570717624,0.018198477346564636,0.43674796834830254,normal
2024-01-01 00:00:06.140,0.06095416293445151,-0.020373705661196055,3.011594541531445,0.17480194985836658,0.1659158518687649,-0.13524683363558263,normal
2024-01-01 00:00:06.150,-0.3626071737993906,0.11000152685198665,4.20900555006056,-0.34283706081916554,-0.06261447965673514,-0.11984328819849109,normal
2024-01-01 00:00:06.160,-0.07302857973645283,-0.3319771808098373,5.250238959407016,0.06679418847003112,1.0356540592445838,0.11168607920656223,normal
2024-01-01 00:00:06.170,0.011711603275153056,-0.16903728204846255,5.733773160523538,-0.1119309418764494,0.6974426754318234,0.3334607445026751,normal
2024-01-01 00:00:06.180,0.007640545739349691,0.4776006203507755,6.845877129047083,-1.45139173135979,0.08838285018216464,-0.38493246105875917,normal
2024-01-01 00:00:06.190,0.03668895527352247,0.2041496559894179,7.5907849726180965,0.46475370928842413,0.1609849438241361,0.22099710669131029,normal
2024-01-01 00:00:06.200,-0.0893455785967473,-0.8183121758876432,8.084735826411874,0.1795155073628347,0.7665513506961368,-0.41207634924692776,normal
2024-01-01 00:00:06.210,0.04399536694651672,-0.14368542823735755,8.998385867562547,0.33488338337352486,0.9105026313576183,-0.6322469155540146,normal
2024-01-01 00:00:06.220,0.14475621002095734,-0.3045863309087573,9.105154194929169,-0.23321947501931956,0.4558373444219203,0.18474614626666294,normal
2024-01-01 00:00:06.230,0.4141271802592623,-0.3660913327006374,9.47993132566717,-0.02673302246615544,-0.41348508608566253,-0.26689684211793435,normal
2024-01-01 00:00:06.240,0.040342090899167245,0.24082611529160536,9.924354074015309,0.4539723921066349,0.32337073529280275,0.1653713274759397,normal
2024-01-01 00:00:06.250,0.45087510440753875,0.16161636659671458,9.50196006365899,0.09688943936139813,-0.35129039516461885,-0.15705672401914078,normal
2024-01-01 00:00:06.260,-0.23405897111377677,-0.0521144298817426,9.964114248635354,-0.04877928287807698,0.27426182888855977,-0.11877533741277146,normal
2024-01-01 00:00:06.270,0.23662897192753155,0.026003479615349143,9.444491467268119,0.047917338421018765,-1.036717037054276,0.4914031426456565,normal
2024-01-01 00:00:06.280,0.18017424275627716,0.3416892560280615,9.323311947121963,-0.4395147816219607,-0.9617411776774062,0.21253641667093387,normal
2024-01-01 00:00:06.290,0.0927337327184163,0.20868917557631242,8.777902643944067,-0.7610773644480494,-0.9672212250365985,-0.5183054374468791,normal
2024-01-01 00:00:06.300,0.6578222212747252,0.42294938811056554,8.326393260353184,0.03171134586531072,0.6841642290429474,-0.360977582399509,normal
2024-01-01 00:00:06.310,-0.024448688056107726,-0.6203021537023973,7.250135055915308,0.09374896339815891,0.14482109444012203,0.0312476957849405,normal
2024-01-01 00:00:06.320,0.14850769187063315,0.5594524817118562,6.888301908199168,-0.010750678796571192,0.2671004443402182,0.16857275582886375,normal
2024-01-01 00:00:06.330,-0.2684530302841432,-0.054497310686464524,6.091363199602877,0.3075235102972666,0.6764336476180386,0.11154696747981938,normal
2024-01-01 00:00:06.340,-0.21665221645887595,0.011199080715922563,5.166692314132326,0.7163907378971915,-0.2331120660238223,-0.2265581533252464,normal
2024-01-01 00:00:06.350,-0.08496403371009807,0.08361330780494554,3.953812113249405,-0.6786459071816942,0.09055319294765532,-0.5685037387228182,normal
2024-01-01 00:00:06.360,0.4677252496762814,0.12583032328764787,2.8957849267214857,0.06899919152705197,-0.17227427174105733,0.2808202947830425,normal
2024-01-01 00:00:06.370,0.12400034430684531,0.4621260417669061,2.051124847602319,0.28233746406930316,0.10337685268919038,-0.16218362965447192,normal
2024-01-01 00:00:06.380,-0.155510617195576,-0.3229555602688997,0.962962678993814,-0.08227687358349062,-0.5393899370693775,0.21226086545745387,normal
2024-01-01 00:00:06.390,0.14203082744278997,0.16221768498696534,0.12538900637837788,0.2191655895263375,0.3601382994709009,-0.05589357513002782,normal
2024-01-01 00:00:06.400,0.53212648167272,-0.16932191977874936,1.3077983801533999,0.3398605361265335,0.1850519508943803,0.23880331227870477,normal
2024-01-01 00:00:06.410,-0.11087483456607088,-0.013056692150822608,2.3115980373398837,-0.43424722930743326,-0.8649597663040853,-0.5289430012615793,normal
2024-01-01 00:00:06.420,0.09631708540065916,-0.21009917757781135,3.369887600756241,-0.6968901037243658,-1.4865221737610292,-0.524340169198539,normal
2024-01-01 00:00:06.430,-0.12039741766603537,-0.10403296536411698,4.418931385585802,-0.3851704054402207,-0.7990686937457816,-0.3850743008470184,normal
2024-01-01 00:00:06.440,-0.06031706485239907,0.12399778756720187,5.464029330772492,0.8973075130211075,-0.7078517103372227,-0.12470049674098968,normal
2024-01-01 00:00:06.450,0.29320957636149664,-0.023275398784257963,6.035556980140771,0.20057802021038615,0.17137684560703742,0.21357668983978925,normal
2024-01-01 00:00:06.460,-0.2441924998176978,-0.37039930985112707,7.007160678954813,0.20694633271692442,-0.6455038255521311,0.5059163507014205,normal
2024-01-01 00:00:06.470,0.08292954384294728,0.4002643384146238,7.5013417366773245,-1.1093656472222837,0.5281071232189632,0.548959700322779,normal
2024-01-01 00:00:06.480,0.09666720149444215,-0.1384995019991138,8.644050397908192,0.22188616771487224,-0.3668728853914164,0.12372086280546546,normal
2024-01-01 00:00:06.490,-0.0706818074310514,-0.024925547170167206,9.016136947306677,0.1943618478147533,0.5237793242596008,0.5965484771300351,normal
2024-01-01 00:00:06.500,-0.20683906004768232,-0.3792775882482704,9.187245811802836,0.2769660490853881,-0.4549458524888344,-0.4356811798655221,normal
2024-01-01 00:00:06.510,0.17789137241542866,-0.21810674829616364,9.516591604548752,0.42459328449036776,-0.9751857887426763,-0.5240886111016813,normal
2024-01-01 00:00:06.520,-0.19882358237110864,0.12472155659547353,9.715049622262043,-1.0156942018023059,0.3575401210072211,-0.5174601870752417,normal
2024-01-01 00:00:06.530,-0.32376418870538926,-0.6067643966585078,9.928021535368282,-1.3388445903093005,-0.666172379177372,-0.4181006860734568,normal
2024-01-01 00:00:06.540,0.4648789027182808,0.06215028718074884,9.803917740813176,-0.423081376553866,0.9547957321339986,0.12374531978034559,normal
2024-01-01 00:00:06.550,0.012487312121878624,-0.17047171058812716,9.498903025804342,-0.17242544975058477,-0.9458494663974841,0.03704529545364367,normal
2024-01-01 00:00:06.560,-0.43500330679292104,-0.25695331161156754,9.276376276517746,0.13531559658445555,0.17132809096655846,0.32771421700936293,normal
2024-01-01 00:00:06.570,-0.18635988892610436,-0.27476071539822594,8.829335834454092,0.2997936987303427,-0.050163113872024094,0.09048323992536887,normal
2024-01-01 00:00:06.580,-0.13911124276003542,-0.3228579640133881,8.242403899082118,-0.7951800345235758,0.0837177338422391,0.3505076750502358,normal
2024-01-01 00:00:06.590,-0.017991103796827092,0.03318741089557746,7.323251640662702,-0.12497076290037402,-0.3917399088197139,-0.08536451237329554,normal
2024-01-01 00:00:06.600,-0.13062570887942637,-0.02677919022889459,6.861582650668464,-0.05470092932706208,0.25482463694540464,-0.46862111335194556,normal
2024-01-01 00:00:06.610,0.24061768592481403,0.3092791887114485,5.951142485040994,0.681375415632906,0.38825332789778827,0.16360289239812628,normal
2024-01-01 00:00:06.620,0.1623320421246878,-0.05161790477224927,5.037859938875147,0.32668093870059833,0.280980875088733,-0.33533097409944057,normal
2024-01-01 00:00:06.630,0.5690666114603589,0.1432408168115255,3.9662197428891734,-0.7111867745139702,0.05074541532051099,-0.24061546026633848,normal
2024-01-01 00:00:06.640,-0.6640482634695449,0.440778490124799,2.8166107460951704,-0.5044238766887418,0.3780732303275788,0.7907123148274202,normal
2024-01-01 00:00:06.650,-0.11920357930337153,0.018492900266480795,1.671245542893896,-0.21341254200454313,-0.1097096242092985,0.23324784528350045,normal
2024-01-01 00:00:06.660,-0.08264660558962314,-0.0515412193039029,0.6167108471946185,-0.6524812952487559,1.31849627704365,-0.2480059945654665,normal
2024-01-01 00:00:06.670,-0.7410117575025348,0.5367220915186901,0.7517690302850704,0.06500588581405821,0.2748756315832446,-0.31483279718545526,normal
2024-01-01 00:00:06.680,-0.20972993710861712,-0.04434645282990604,1.510042778043077,-0.10669273527261341,0.33737842137347385,-0.07573319756106396,normal
2024-01-01 00:00:06.690,0.5211497492320156,-0.6439961154711357,2.389639384619202,0.7564389855605559,-0.5815429134339625,0.3385095051859603,normal
2024-01-01 00:00:06.700,-0.16590553819549256,0.17388595850227767,3.6535277396955,-1.171083157792512,-0.18765291059634745,0.08895972143174695,normal
2024-01-01 00:00:06.710,0.10955447939437797,-0.38062122965746653,4.708215171472759,0.5072038351850128,-0.5241386696525284,0.7396487912343815,normal
2024-01-01 00:00:06.720,0.02330664357296471,-0.40463733714135386,5.615745571695788,0.3954258563424415,-0.4874942825911504,0.031026545816998683,normal
2024-01-01 00:00:06.730,-0.5875839420250747,0.04986897910429507,6.206186223696272,0.27702305425651885,-0.246010105716507,0.48076455846149535,normal
2024-01-01 00:00:06.740,-0.2864385836564827,-0.3760275179793568,7.095625083371666,-0.6719930453520977,-0.37464190368235345,-0.06577726521532244,normal
2024-01-01 00:00:06.750,0.1972249224557309,0.44006476052648885,7.980335890649805,-0.10598592327019128,-0.03461203030694768,0.039191174196347246,normal
2024-01-01 00:00:06.760,0.3356891713411933,0.023670785570035557,8.568714386813916,-0.08204487015317537,0.45898180084923346,0.2751147361856188,normal
2024-01-01 00:00:06.770,0.4997258095628252,0.15869787337432212,9.106178832475964,0.6047695068165256,-0.8865274477721168,-0.3567058346791642,normal
2024-01-01 00:00:06.780,-0.2567164234371975,0.39176381652659314,9.343132002058342,0.014391738905429073,-0.5224678830695296,0.2845730382944023,normal
2024-01-01 00:00:06.790,0.1388176339588651,0.043885250936628574,9.811964819266922,0.5530391343600274,-0.49703724042758035,-0.7680303710815697,normal
2024-01-01 00:00:06.800,-0.2536123231937503,0.8998978146462175,9.830628524958128,0.8686705137219951,0.38671552244262497,-0.37916673633076586,normal
2024-01-01 00:00:06.810,-0.10510427444318944,-0.16143435976764403,9.811907085842801,0.4989079104465958,0.32717483500804784,0.27976843514690164,normal
2024-01-01 00:00:06.820,-0.6263750675434072,0.20805805597090665,9.771909046256079,0.3315910655037172,0.11645831335147445,0.07894580427632389,normal
2024-01-01 00:00:06.830,0.08887135050044284,0.18744368665435374,9.642609851540133,-0.98126704542306,0.08794001940467065,-0.04723621281226154,normal
2024-01-01 00:00:06.840,0.5361881818671907,0.22182611452245757,9.28272908034446,-0.6370814721172612,-0.6547927320105476,0.41818028574590543,normal
2024-01-01 00:00:06.850,0.10786097787322485,0.12116390739424446,8.731765824406086,-0.13219046491865058,0.05930830114170985,0.32925186696966674,normal
2024-01-01 00:00:06.860,0.053517153321237645,-0.24616498056634828,7.769529637684818,0.5474116149751688,0.256178022372079,0.38195638858492476,normal
2024-01-01 00:00:06.870,0.1425472648420274,0.24050346043545295,7.222211698933342,0.18479927949611444,-1.002245263840975,0.38702460277445094,normal
2024-01-01 00:00:06.880,0.15493565221759767,-0.5031460188559924,6.321960548643734,0.11991669892301952,-0.1776565329980774,0.17969390442379443,normal
2024-01-01 00:00:06.890,-0.397560695808704,0.1440024678284959,5.613344915865277,-0.33671297352923457,-1.5428277465069713,0.43964533260048316,normal
2024-01-01 00:00:06.900,0.26588592824059665,0.6463616780702474,4.578299818624714,0.20256247874272298,-0.5041810997259637,0.15104239543560952,normal
2024-01-01 00:00:06.910,-0.15203302754663772,0.17644148389432704,3.705934278470056,-2.0286664077464858,0.39312183904884795,0.20926041182189895,normal
2024-01-01 00:00:06.920,0.581406336917214,0.03442272686151875,2.5590298779594542,0.37282035587302903,0.7507076372577001,0.09985929097785357,normal
2024-01-01 00:00:06.930,0.26305432489978325,0.480819287899082,1.3511533165405698,-0.019824581520106344,1.3679163073352683,-0.2927544101125804,normal
2024-01-01 00:00:06.940,0.03533748684602665,-0.3368023013637022,0.5347540089271046,-0.1391224605490369,0.3002472336059507,-0.026866209877652935,normal
2024-01-01 00:00:06.950,0.042327124021479166,0.2433982760716432,0.4427412633352009,-0.3288380305496362,0.45279558919085483,0.19351066231967484,normal
2024-01-01 00:00:06.960,-0.7608470123446808,-0.06644851447958357,1.5170340635958268,-0.9030471959080902,-1.2426088446236168,0.46247298442323725,normal
2024-01-01 00:00:06.970,0.020961455034790234,0.2537515292089633,2.877450733503696,0.4753708393837933,-0.3049719334522574,-0.11625405452293233,normal
2024-01-01 00:00:06.980,0.02411321632309854,0.08351858042087926,4.041946413687249,-0.7905277112858746,0.07726621145586643,-0.28599008919807944,normal
2024-01-01 00:00:06.990,-0.0070675140699674255,-0.1689680537823516,4.856108566156563,0.6117488338771236,0.5003857215144736,-0.8173863948255051,normal
2024-01-01 00:00:07.000,-0.21938518568675183,-0.42553520438064873,5.839602920201499,0.09585470951900832,-0.21086570129421395,-0.5722014534758224,normal
2024-01-01 00:00:07.010,0.19557770722425927,-0.21144288154506358,6.709448202920679,-0.5012348934811632,0.3129266992745305,-0.004456543184030485,normal
2024-01-01 00:00:07.020,0.1241051265252311,-0.6027480725850943,7.409272385904099,0.8994023893654822,-0.11225805632914038,0.14359508250890543,normal
2024-01-01 00:00:07.030,-0.11037269506105209,-0.04708066945946046,8.035647858367776,0.6068865936515204,-0.3573813055899003,0.24390309755409645,normal
2024-01-01 00:00:07.040,0.010993059168757294,-0.004140439212187998,8.780255299354396,0.13293633095444685,0.16422330199534246,-0.10443376857478648,normal
2024-01-01 00:00:07.050,-0.4871013496638225,0.30449661274226253,8.924398915873544,0.6582740378710569,-0.9039706305050353,-0.5571594272664963,normal
2024-01-01 00:00:07.060,0.2725748040632748,-0.22266394546482396,9.883439336086473,-0.5610500898657855,0.21393253755802713,0.167273899273095,normal
2024-01-01 00:00:07.070,-0.10876880445953298,-0.4717929851937193,9.841501253495766,0.04884604041698028,-0.908222635985212,-0.5006854119581274,normal
2024-01-01 00:00:07.080,-0.5820193893731725,-0.33159898838126634,9.944070541054298,1.2101807951035146,-0.19468549761870982,-0.20077472532794202,normal
2024-01-01 00:00:07.090,0.0807046631588441,0.25314743317129607,9.783398250257134,0.057324250092316884,0.721838317509054,-0.21287349368252032,normal
2024-01-01 00:00:07.100,0.038446937983558464,0.07782083916522903,9.688320394115305,0.3674880856859759,0.5376780435255484,-0.13268249924775347,normal
2024-01-01 00:00:07.110,0.4438642052531189,0.028349710604961713,9.395919579444342,0.7182799043356545,-0.3433022960124623,-0.22910595357418018,normal
2024-01-01 00:00:07.120,-0.0049526708421581975,0.34416949380830963,9.041712252500622,-0.31770390865250764,0.3986760831146381,-0.038972753279470605,normal
2024-01-01 00:00:07.130,-0.40789958495183914,-0.11969911568865757,8.227282646394677,-0.2742753368410027,-0.8886259508836726,-0.34047468977220846,normal
2024-01-01 00:00:07.140,-0.37117711377707174,0.36183665680670546,8.037899316358253,0.397888245669851,0.7748464454451437,-0.834943845802409,normal
2024-01-01 00:00:07.150,0.36685523174414897,-0.03426919701205085,7.1753032908163625,0.8180014925230045,-0.27959509166014906,-0.15955042045205883,normal
2024-01-01 00:00:07.160,-0.028602370311874896,0.24560830709189455,6.6797642782264095,-0.8605053374457714,1.3532080212268847,-0.31974670640241337,normal
2024-01-01 00:00:07.170,-0.23223845724685552,-0.2196953977191139,5.5216395948856425,-0.4760866567179201,0.6271622962580908,-0.17425426213047066,normal
2024-01-01 00:00:07.180,0.18253626497487896,-0.20736007886405092,4.414250718669674,0.39469450855873695,0.4036303591373723,-0.42052495187282274,normal
2024-01-01 00:00:07.190,0.5084416272493494,-0.1642268422719332,3.453906122856049,0.08152140223855882,0.1140213961919244,0.10395866216372412,normal
2024-01-01 00:00:07.200,0.2778885814955587,0.012096714454052854,2.5545971582586278,0.7152062850186423,0.43981694471878263,-0.9801642020707059,normal
2024-01-01 00:00:07.210,-0.029092896166773467,0.3336623745318404,1.113142954505765,0.07005598361874073,0.608442517618709,-0.4494176574681133,normal
2024-01-01 00:00:07.220,0.22632434221742073,-0.6690087004045779,0.49083539277037047,0.0886883064901605,0.7444689067415081,-0.12123053936877468,normal
2024-01-01 00:00:07.230,-0.26340156418513955,-0.3143494147640857,1.0123367876713179,-0.3032032244818875,1.255773001983259,0.6254185844417736,normal
2024-01-01 00:00:07.240,-0.23652666336131,0.14033921876805255,2.0765228156365065,0.9192405477598804,0.7494932739849431,-0.20840373577781704,normal
2024-01-01 00:00:07.250,0.036025540195177314,0.24656848760088035,3.0716254811072687,-0.4228418047952777,-0.8516586681229207,0.5387400679838803,normal
2024-01-01 00:00:07.260,-0.2694464059458562,-0.09140647946357247,4.219495939428617,-0.43492118959885223,0.21944301356127935,0.2564014679427318,normal
2024-01-01 00:00:07.270,0.6286900692619234,0.39417463638385897,5.06267528415319,-0.23394144700461061,1.1794268652633617,0.011839977708023546,normal
2024-01-01 00:00:07.280,0.32489988095389755,0.221260983528885,6.016720946380933,0.49465288469561536,0.02992468091775376,-0.6843388031604454,normal
2024-01-01 00:00:07.290,-0.6377940450227245,-0.0009520541055760728,6.745723898996576,0.449790553046364,-1.0035290356506312,0.3347331560207593,normal
2024-01-01 00:00:07.300,-0.10955232181801969,0.17852108243618114,7.56279161566452,-0.29559200666093066,0.20208995408880168,-0.3409482436518849,normal
2024-01-01 00:00:07.310,-0.40779214713271505,0.6547765026144671,7.962863008100426,1.1563330429733507,0.4474080817110704,-0.016251350882356567,normal
2024-01-01 00:00:07.320,0.2146018299710469,-0.3015389813525419,8.698740718599742,1.1848104820551133,0.6504330043817511,-0.4224574716822042,normal
2024-01-01 00:00:07.330,-0.12667726606446766,-0.38310656941309457,9.062281970040837,-0.42135495091973074,1.0099906665387484,-0.21582774690050896,normal
2024-01-01 00:00:07.340,0.22261547693119998,-0.19818851617314795,9.683617864556076,0.25659344978350107,0.3762578514918515,0.029122832089754108,normal
2024-01-01 00:00:07.350,0.3347336514584944,-0.029077613206365933,9.506261526206135,-0.8957400122109844,0.4073692394428107,0.015759172561194083,normal
2024-01-01 00:00:07.360,-0.10257246561391489,0.04817122835641728,9.649934051715702,-0.5180911690048509,-0.34737095714388255,-0.1999073749118642,normal
2024-01-01 00:00:07.370,0.013777890086240143,0.34517844863213193,9.603863228760858,0.15117255863027532,-0.31435361412262847,-0.2077820449195649,normal
2024-01-01 00:00:07.380,0.3568924658300244,-0.10109565423322421,9.706490874444858,0.05119805566524921,-0.17754596871394207,-0.38723614047879146,normal
2024-01-01 00:00:07.390,0.22648303643206463,-0.03869827254760527,9.13036361609643,0.22968622054846055,0.41753502854594876,-0.17201040843888885,normal
2024-01-01 00:00:07.400,0.4571670305163658,-0.1502180413264131,9.004997827455396,0.44578833007145713,-0.6401376637415137,0.3497697041945864,normal
2024-01-01 00:00:07.410,0.2065951218879696,-0.13893259759822352,8.54277000797429,0.41693226659713345,-0.0595756090570607,0.10290762512838102,normal
2024-01-01 00:00:07.420,-0.2588670382475158,-0.06579604968032736,8.032352604611738,-0.18973579878624985,0.5118003713072611,-0.48056909586470775,normal
2024-01-01 00:00:07.430,0.47271512601697835,-0.33837547965485815,6.856987820030183,-0.4392037411184092,-1.5444334154272665,0.21835535399223846,normal
2024-01-01 00:00:07.440,-0.3452042500515766,0.5200573722192561,5.928587254720209,0.39601268092781494,-0.12297050187950496,0.6456590337779772,normal
2024-01-01 00:00:07.450,-0.2641546025511765,0.03793864740520079,5.4093276627350795,0.5649153386965284,-0.9539245246367899,0.07186021629283104,normal
2024-01-01 00:00:07.460,-0.58494804172427,0.23213074036674977,4.117991721658259,0.3865568901312434,0.08180315356492476,-0.4210282381630124,normal
2024-01-01 00:00:07.470,-0.3495188718176842,-0.1706148639592975,3.2523139560718546,0.38516712443596945,-0.36911388292184333,-0.0653785677876043,normal
2024-01-01 00:00:07.480,0.27214390709921366,-0.41711351855348067,2.1983183149957726,0.02115119302392245,-0.029075576518760707,-0.6885236015452708,normal
2024-01-01 00:00:07.490,-0.08613354872411559,-0.2402652260930142,0.8493299870686442,-0.17370842008252826,0.4009818184888058,0.03668392449602267,normal
2024-01-01 00:00:07.500,0.17305726791367668,-0.10181989064613604,0.122844023957391,-0.46626302559998506,0.029665502272120604,0.3653407186551676,normal
2024-01-01 00:00:07.510,-0.38484988498753286,0.09285323368456681,0.9956984338024067,0.035974707103200027,-0.6812504738489285,0.0652484405146053,normal
2024-01-01 00:00:07.520,0.09620630105135403,-0.33365754482384274,2.147149219510431,-1.0309042221190066,0.2709902933009031,0.12615387955974577,normal
2024-01-01 00:00:07.530,0.3594105995397538,-0.20077988260503857,3.3247946739838636,0.026049954772282176,0.0854059879745794,-0.14371698703349003,normal
2024-01-01 00:00:07.540,0.3692770405199138,-0.055626266624130505,4.254192494207006,0.02956738080746143,-0.9185914349995858,0.6014696626589086,normal
2024-01-01 00:00:07.550,-0.01909464896208155,0.045179772946325546,5.264964428557907,0.20244651900498237,0.8604425947819252,-0.08867311483302058,normal
2024-01-01 00:00:07.560,0.29486965460165565,-0.36111735689145813,6.099703900800805,-0.33002051211699596,-0.09831547203410614,-0.09198147743897384,normal
2024-01-01 00:00:07.570,0.6342749124335441,0.047591429691359835,6.994707903537439,0.9917556624613638,-0.05203713480563302,-0.27117024745050644,normal
2024-01-01 00:00:07.580,-0.12913953922421675,0.44287629090736763,7.8018440932381505,0.07956355748950279,-0.30110229362276963,0.11704710134500976,normal
2024-01-01 00:00:07.590,0.23116796609990792,-0.43899708954656885,8.320042808532373,-0.22828123890512914,0.3891392380931154,0.6727245898072663,normal
2024-01-01 00:00:07.600,0.12337552052049199,0.3411457633436644,8.890581932439217,-0.5111685199684247,-0.4637000708507422,-0.41084874614412986,normal
2024-01-01 00:00:07.610,0.012803858628904027,0.379934610636321,9.54738952438684,-0.3960063175284844,-0.4156109258346132,0.34089560120881196,normal
2024-01-01 00:00:07.620,-0.1630036323867454,-0.027550596010964077,9.763945538183881,0.37440144209947357,0.164832114619554,-0.06983809609601134,normal
2024-01-01 00:00:07.630,-0.1022253501236913,-0.0615008779159707,9.930686563095493,-0.5909497590427553,-0.5687536234374868,-0.3863605907971996,normal
2024-01-01 00:00:07.640,0.07281960943166825,-0.6013612094388767,9.827299078311368,-0.8280314129630848,-0.029038348628072867,0.21510327877686433,normal
2024-01-01 00:00:07.650,0.2814512669143706,-0.41576887938257384,10.142826100322974,0.287280796410421,0.2538406786892391,-0.11710146583821167,normal
2024-01-01 00:00:07.660,0.010458824575083294,0.22310414754564825,9.31552231285378,0.030121521467621537,0.4049132897157741,0.41177247317888127,normal
2024-01-01 00:00:07.670,0.11335014232432516,-0.20356146475978373,9.010705724555441,0.17353091109837732,-0.5419240655070384,0.4334876618257803,normal
2024-01-01 00:00:07.680,0.1204668383680306,-0.15967259032418585,8.871648695227746,-0.027622603831238244,0.7757732125991214,-0.2714032912829712,normal
2024-01-01 00:00:07.690,0.19280460420001097,-0.4053314557571211,8.06010512732976,0.3561436394818471,-0.6984018946676429,0.38655334545237247,normal
2024-01-01 00:00:07.700,-0.5915207326519503,-0.20408810206685732,7.359161267232458,-1.0410443652649135,0.0828881187072322,-0.12589425367801632,normal
2024-01-01 00:00:07.710,-0.17763642467284319,-0.3559775261342677,6.869565229745844,0.43230730282374197,0.7343220002979594,-0.03601515335470564,normal
2024-01-01 00:00:07.720,-0.10367984307602496,0.21151568776610824,5.724313722804045,0.8893545463761932,-0.10662460330863575,-0.3236850288032758,normal
2024-01-01 00:00:07.730,-0.03941722291637933,0.18544939830113502,5.024789497979629,-0.5648972150892788,-0.18769310339142223,-0.25190342128958304,normal
2024-01-01 00:00:07.740,0.2172365381815928,0.01161776547722391,3.8713172409177186,0.08190989502423401,-0.3618834370447513,-0.4647487475767844,normal
2024-01-01 00:00:07.750,0.28551535234490305,0.23383680088485032,2.880547487737611,0.9197500067680673,-0.17315255454056575,-0.37394352341836595,normal
2024-01-01 00:00:07.760,0.24646937516811332,0.04954836552915757,1.8476227021179208,-0.008726738431468675,0.9623597250197553,-0.36915831960873813,normal
2024-01-01 00:00:07.770,0.15218927833906756,0.35528705186102416,0.7263040169470325,-0.017075599172779097,0.7366625393965283,-0.23263789364147117,normal
2024-01-01 00:00:07.780,-0.1406733660547775,0.39802517600089754,0.31896305087245697,0.3270565223237837,-0.6723587899863179,0.3682159503986378,normal
2024-01-01 00:00:07.790,-0.3101761336999059,0.5774593801773583,1.2493879838452155,-0.11036118855075584,0.576659423766872,-0.24511621339122677,normal
2024-01-01 00:00:07.800,-0.1864990478308911,-0.21515094391853076,2.453088156349962,-0.36111261788124793,-0.9317610113140865,0.15545853168071672,normal
2024-01-01 00:00:07.810,0.49204722492608455,-0.07124896459094947,3.586863506780981,0.7644584056809917,-1.0686012265605431,0.1832098547335793,normal
2024-01-01 00:00:07.820,-0.07726627309796825,0.02574219236978129,4.339856850630543,0.040773409125436325,-0.10084606192838669,0.1829132736815065,normal
2024-01-01 00:00:07.830,-0.09230718336522169,-0.17101948043938733,5.358336518513358,-1.2580933115357322,0.418173739807658,0.06609302106329606,normal
2024-01-01 00:00:07.840,0.45492531252778506,-0.28366109326809236,6.396136496902508,0.6137393524801356,-0.8169426490425246,0.11035943195354879,normal
2024-01-01 00:00:07.850,0.09462245760994958,0.14753105262463406,7.376894752025856,1.5351324574356755,0.24621600046706282,-0.13520035173844883,normal
2024-01-01 00:00:07.860,-0.24599632821010253,-0.0670705612232469,8.215856236932286,0.6359883324438781,0.13575267794548418,-0.2019655580822037,normal
2024-01-01 00:00:07.870,0.0108543889314102,-0.35042029280757536,8.586061906898518,0.5890980634294575,-0.2327979006890751,0.4912673275306401,normal
2024-01-01 00:00:07.880,-0.2988453712440145,0.11838802406595464,9.259795260178167,0.21483307492561618,0.5264993596818388,-0.03978706118064109,normal
2024-01-01 00:00:07.890,-0.5001251447662358,0.2943014894114748,9.409890372352224,1.424020406277675,0.054903986323315175,0.04422558797618674,normal
2024-01-01 00:00:07.900,0.2298698224330859,0.03624215346709333,9.647129707552084,0.06296396356289886,0.3574402335477892,0.7274160972157918,normal
2024-01-01 00:00:07.910,0.6197517801521193,0.21201124295126858,10.001366060727408,-0.4575401467303971,-0.04534658178439238,0.6273776228803586,normal
2024-01-01 00:00:07.920,0.39754161026706114,-0.4706327357317425,9.72736171060108,0.1551344364600802,0.21684377319625858,0.2666417370052974,normal
2024-01-01 00:00:07.930,-0.3294385141308512,0.15975740284551904,9.902960934586986,0.8181113116893451,-0.810127620757974,-0.21150583659225547,normal
2024-01-01 00:00:07.940,-0.34757656008148485,-0.28405208758705125,9.296453149257905,-0.5877164621740412,-0.11689780216083302,-0.07333023859110345,normal
2024-01-01 00:00:07.950,0.3721188536714361,0.20582253696359845,9.237460076578731,-0.3351182934461885,0.21100949322240245,0.29827396867636846,normal
2024-01-01 00:00:07.960,0.1946458767947588,-0.019970221905860976,8.45523958862208,-0.0014696397957231736,0.12090998066893095,-0.06413210778650962,normal
2024-01-01 00:00:07.970,0.2450280345476576,-0.0981000531782399,7.958988135067357,0.5837454251185124,-0.1391048304064066,-0.2249748928914907,normal
2024-01-01 00:00:07.980,0.29368768792773914,0.20670407222680753,7.490026273854098,-0.5197949698345478,-0.42480138337256235,0.07300038943010093,normal
2024-01-01 00:00:07.990,-0.07288485535490918,0.04011972826477914,6.674724263725283,0.09568227501860337,0.3759953627628047,0.34110674766623084,normal
2024-01-01 00:00:08.000,0.6387951831344233,-0.15172978367053197,5.341027477595123,-0.3778315270481056,0.4048398956994358,-0.3047243815506239,normal
2024-01-01 00:00:08.010,-0.17658570520267752,-0.1836233242781698,5.036408098392006,0.198290416811272,0.5539867866452142,0.39876466376023234,normal
