timestamp,acc_x,acc_y,acc_z,gyro_x,gyro_y,gyro_z,label
2024-01-01 00:00:00.000,-0.3310015347196596,0.19881668243337353,0.019125133849881237,-0.5681438389496767,-0.8721066103545381,-0.5621054705972607,normal
2024-01-01 00:00:00.010,-0.21750739207333195,-1.076934192851353,0.770460435735591,0.44330697086161086,-0.03380368728816698,-0.13620688066189574,normal
2024-01-01 00:00:00.020,-0.23454157719541702,-0.39195949836561395,2.3258949898312307,-0.12789110504507062,0.4851651181545507,-0.7508909314418748,normal
2024-01-01 00:00:00.030,0.08009275691831774,0.24257576084984928,3.3485953351060433,0.09478646065877445,-0.7791163190017987,0.9554345582887911,normal
2024-01-01 00:00:00.040,-0.07457421883166725,-0.004696394793057941,4.3309359167119235,-0.5627999777238766,0.018630975628752183,-0.25727549369864594,normal
2024-01-01 00:00:00.050,0.037944915453554946,-0.7391021559439972,5.460996010579172,0.3251018983003826,0.06224826254192148,-0.10204152276875002,normal
2024-01-01 00:00:00.060,0.25291277124130135,0.13897199086254494,6.233149565411577,-0.6144645677831502,-0.2823550724650229,0.28743036407970424,normal
2024-01-01 00:00:00.070,0.25738096484273054,-0.21763750943156493,6.87559838779792,-0.1635548357629312,1.0174237702556608,-0.008068526699059268,normal
2024-01-01 00:00:00.080,0.14255509258457555,-0.055042690391830434,7.9016676413116445,-0.5538010369362346,0.46479980375159735,-0.44212207042455753,normal
2024-01-01 00:00:00.090,-0.13523057942472505,0.17522707884387112,8.267781529497453,-0.31761411999998074,1.1165369518696098,-0.1734516068279106,normal
2024-01-01 00:00:00.100,-0.22647968454712536,-0.370844821752576,8.799760511321201,0.05086924860562568,-0.14056378920300364,-0.3759520555781457,normal
2024-01-01 00:00:00.110,-0.2444442322017273,0.21953298687410502,9.540005494789629,-0.09316227037873738,-0.4218853216754723,-0.38633340203733696,normal
2024-01-01 00:00:00.120,-0.10315645733827822,-0.11345547807185766,9.6321666761649,-0.4666621027509685,-0.6548868334407545,-0.1945125729359732,normal
2024-01-01 00:00:00.130,-0.015414028136080095,0.08134528179285533,9.768999921090025,1.180987761952153,0.31786285258565444,0.11353469243568848,normal
2024-01-01 00:00:00.140,-0.2916821032123071,0.12008622305101384,9.841950481665906,0.6417259083694973,-0.24520698136312669,-0.13447757398988844,normal
2024-01-01 00:00:00.150,-0.3403462598871068,-0.9534210231090201,9.758964345601175,1.5858898031595705,0.3635108047348104,0.5962310598252708,normal
2024-01-01 00:00:00.160,0.0917115658212823,0.1374355582378818,9.711771554517476,0.5435242053020628,-0.21569890357321395,0.02778141078256036,normal
2024-01-01 00:00:00.170,-0.5555055090176284,-0.15123255571469837,9.330766738390594,0.34852634695082285,-0.5671120463378916,0.4483310511176522,normal
2024-01-01 00:00:00.180,-0.05311605245195259,0.3961100182076535,8.656797144653556,0.6054009915698604,0.2599066639594955,-0.25550620577525673,normal
2024-01-01 00:00:00.190,0.1277477001831604,0.35002383039300417,8.25887155280124,0.7859734948903631,0.19829822636256214,-0.11963461188440386,normal
2024-01-01 00:00:00.200,-0.29560668192044054,0.06716973606347977,7.581551527316939,-0.12472677115426273,-0.5221947831473027,-0.23362788573088494,normal
2024-01-01 00:00:00.210,-0.33388623919084104,-0.12855999391977638,6.525387824263507,-0.04632301111563163,-0.5827817246078405,-0.2585010188743864,normal
2024-01-01 00:00:00.220,-0.22818780973105218,-0.07931508146983393,5.954480290679132,1.1941889610215615,0.5991376145909966,0.23295758722471338,normal
2024-01-01 00:00:00.230,0.19440737665093652,0.657270436363539,4.996876167015857,0.6928705675770902,0.1611972736376134,0.33411336998168645,normal
2024-01-01 00:00:00.240,-0.03894940692345245,-0.3560067399649363,3.8800343822673935,-0.35773992036269503,1.1176206224460514,0.07019856624240547,normal
2024-01-01 00:00:00.250,-0.5608791698525134,0.46329713464048233,3.412288976481802,-0.16790091936316842,0.10237088591107675,-0.362516865544713,normal
2024-01-01 00:00:00.260,-0.12700473294347464,-0.14987254631137045,2.035572526359088,0.09346629357588827,-0.2313600271441469,0.5213246134462634,normal
2024-01-01 00:00:00.270,0.30416903993939937,0.40015794404931493,1.0292796483307325,0.5930363251167111,0.11864000769763378,0.7461110276712092,normal
2024-01-01 00:00:00.280,0.2951146033484043,-0.009225450640093545,0.09648056287062848,-0.01211327382769918,-0.18563682706760426,-0.05454873555070033,normal
2024-01-01 00:00:00.290,0.18901258521896172,0.464337944163255,1.0199632334977027,-0.25595891845543733,-0.9148512591630463,-0.40568178004331257,normal
2024-01-01 00:00:00.300,-0.07141764153537541,-0.34686216334081027,2.4710878253630533,0.05075125026701835,-0.38782453867556516,-0.41000499565504295,normal
2024-01-01 00:00:00.310,-0.5534819627858433,-0.3089671634159309,3.5920707210648324,0.5954001084737418,0.5368215760078155,-0.11554796807199513,normal
2024-01-01 00:00:00.320,0.05087331872633573,0.3081802413325578,4.9530729029219405,-0.3713192336045658,0.12012867754815633,-0.262033004547413,normal
2024-01-01 00:00:00.330,-0.052793329274770415,0.15200489993101918,5.546999551395353,-0.154783037266325,-0.6496476591966073,-0.8471630201273246,normal
2024-01-01 00:00:00.340,0.023039959346426418,-0.2105509145204885,6.459985691848513,-0.5547013819882899,-0.23953759777248318,-0.2139865775319062,normal
2024-01-01 00:00:00.350,0.46269123329868944,0.27978743484227026,7.337010688340498,-0.29043982086576237,-0.5064109906254134,-0.5438963091522038,normal
2024-01-01 00:00:00.360,0.05510506159478453,-0.008351500946480546,7.8482185246843255,-0.719221616370849,-0.06512332996184937,-0.14703245136449508,normal
2024-01-01 00:00:00.370,0.08290014336348127,0.5205877912952012,8.599303628288903,-0.3719878670759118,-0.29318718095479057,-0.10310691938530787,normal
2024-01-01 00:00:00.380,0.18152924614234497,-0.12317987839926459,9.050766648575458,0.05185308874948383,0.11833887766205861,-0.04445304803159218,normal
2024-01-01 00:00:00.390,-0.07697067206207504,0.018425271838986634,9.424191070980639,-1.320435260674433,-1.2560485827549523,0.05877795410533941,normal
2024-01-01 00:00:00.400,-0.19930690091642267,-0.18480644589153367,9.543066276952734,1.7487867392830372,0.5279056216377788,-0.8248095586485551,normal
2024-01-01 00:00:00.410,-0.22121191390667888,-0.3872496251828002,9.903654679357524,-0.11122786618290975,1.4994774364553052,-0.12177700626385007,normal
2024-01-01 00:00:00.420,0.2300899454556328,0.016697900729541203,9.571603255488013,-0.39929960465067094,0.7185108512173858,0.5779904951073863,normal
2024-01-01 00:00:00.430,0.15136580821577855,-0.06277546372373541,9.727961464652646,-0.5371213131640408,-0.1872782536806301,0.48536574790058884,normal
2024-01-01 00:00:00.440,-0.14686394155010593,0.13920878553069127,9.566663983940316,0.21925789147717553,-0.5388580826953843,-0.07515700153038209,normal
2024-01-01 00:00:00.450,0.3458085955034469,0.3911871986832082,8.994401285525809,-0.00264390244806868,-0.9493537389695552,-0.6018565500920802,normal
2024-01-01 00:00:00.460,0.05529944422313048,0.16572187864469023,8.565970327531646,-0.30294044684857113,0.01449553667836919,-0.30260757515247116,normal
2024-01-01 00:00:00.470,-0.4020655157549335,-0.2888456372010106,7.836887437869042,-0.8795878816142861,-0.5683421410960924,0.21714559977243722,normal
2024-01-01 00:00:00.480,0.18176368963465991,0.1959096140294147,7.310931778119502,-0.24043130960899753,-0.9669940782170318,-0.8803495449269682,normal
2024-01-01 00:00:00.490,-0.04184570352052448,0.09175046745313496,6.720694853185644,-0.15121652207954486,-0.5482579516645565,0.40557623254595193,normal
2024-01-01 00:00:00.500,-0.3986405473815248,0.07453419672463488,5.543421870339574,-1.0840063327506029,-0.030452162412979236,-0.4988366710511166,normal
2024-01-01 00:00:00.510,0.1546454537497487,0.13912355431925488,4.521971658006664,0.7795598878140129,-0.11518928319167919,0.4888471109586934,normal
2024-01-01 00:00:00.520,-0.10344495530839884,-0.3039580939061399,3.7616776238386826,0.766014132034796,1.7377739929387175,0.09963032272238423,normal
2024-01-01 00:00:00.530,-0.11770278082132878,0.7022163143956585,3.009016783797599,-0.014129377712049373,0.8205057900777446,-0.14484523689732928,normal
2024-01-01 00:00:00.540,0.17696877496913443,0.20949472308557318,1.6815041426839,-0.25403453573038093,0.11703742404589855,0.21486496697649377,normal
2024-01-01 00:00:00.550,-0.6577490175177125,-0.3357096316168488,0.5286598217272496,-0.3668801791180772,0.25565398643742265,0.5176600190152053,normal
2024-01-01 00:00:00.560,-0.383190066984578,0.3158130556273887,0.5990252585043117,-0.5828115736089396,0.8740872190421554,-0.03528086357360599,normal
2024-01-01 00:00:00.570,-0.1273560519398952,-0.20609917750959886,1.5209916973348636,-0.14694547879951797,0.7320809971331943,0.8133847942689151,normal
2024-01-01 00:00:00.580,0.07474907262854016,-0.5298006223211269,2.498780541980902,0.2305304981403694,0.22924962547266597,-0.35124502680740355,normal
2024-01-01 00:00:00.590,-0.19953218508037743,-0.5627522884660241,3.787366857217504,-0.0638116203067178,-0.8144846882556065,0.6022918205312301,normal
2024-01-01 00:00:00.600,-0.29901517197706085,-0.10621738829429557,4.6026764336953825,-1.0239688666901383,-0.21665689088579812,-0.3557262573539237,normal
2024-01-01 00:00:00.610,-0.315726925958208,0.40385641836007663,5.512657494317253,0.09711460149170305,0.6233701215108927,-0.013572479671626543,normal
2024-01-01 00:00:00.620,-0.035187946162779885,0.1521766526678832,6.4780607752931685,0.05150533905829545,0.33426758740684187,-0.0643846343240447,normal
2024-01-01 00:00:00.630,0.20250597913650673,0.4668632711407804,7.407394269731358,-0.3552298267203257,0.1616139387849775,0.3231722805211898,normal
2024-01-01 00:00:00.640,-0.4350006338864987,-0.09626292484832685,8.076520189101501,0.09576848693584279,0.3395616222328544,0.5657437760798308,normal
2024-01-01 00:00:00.650,-0.6241137027747662,-0.3402635159807071,8.73006992121479,-0.8760914745350997,-0.42712066977094315,-0.12926956650906987,normal
2024-01-01 00:00:00.660,-0.089212853133537,-0.5911153183413398,9.018794561210942,0.9120763245622928,-0.023630072193445515,0.2893135362961515,normal
2024-01-01 00:00:00.670,-0.1146054394438393,0.5955995018608317,9.493385012829394,-0.6088002053531975,-0.1321639776603266,-0.21195580301807515,normal
2024-01-01 00:00:00.680,-0.2726941372495968,-0.2444513734662653,9.721170070316692,0.5015861028843306,0.3250449461563061,0.4301748034688306,normal
2024-01-01 00:00:00.690,0.18352282973377212,-0.13367899592165833,10.003876373316322,1.0347225145932633,0.32847887887888266,0.11550519052116104,normal
2024-01-01 00:00:00.700,0.24138947602130983,-0.6972468501968612,9.73055840640859,0.27143180054266974,0.4297583767253379,-0.389045879544962,normal
2024-01-01 00:00:00.710,-0.1692502704509519,-0.15316615780408474,9.321650048881242,0.8321283321812595,0.5810730193963675,-0.33270984490751776,normal
2024-01-01 00:00:00.720,-0.10333542233324529,-0.10374278114959708,9.437094303751255,-0.49321282816645345,-1.072013703924348,-0.0013277432108079689,normal
2024-01-01 00:00:00.730,0.17100875999175166,0.34276221167761733,8.89121611001153,-0.19003517042731566,0.32197294416215677,-0.1414251205315352,normal
2024-01-01 00:00:00.740,-0.1287637861617208,0.0530151824286265,8.8108054156827,0.2597777730640298,0.06057320165867784,-0.018453084093252973,normal
2024-01-01 00:00:00.750,-0.4209433148698238,-0.2203531876112105,7.717920326600122,1.1358179395150125,0.5446323105281833,-0.4048669452562022,normal
2024-01-01 00:00:00.760,-0.020270473443321026,0.46224765990891603,7.246044562576481,0.45471554968086253,-0.12194689009546962,-0.20768609586240214,normal
2024-01-01 00:00:00.770,-0.2712697518616027,-0.5176088822089803,6.50402372053727,-0.7035317616347614,-0.05501975598352605,-0.49769982535418933,normal
2024-01-01 00:00:00.780,0.09758401535480427,-0.2562097437696677,5.212417633482483,-0.3103926934616045,-0.1724034608920692,-0.8182322278631557,normal
2024-01-01 00:00:00.790,-0.1515521719375042,-0.17949227132480944,4.780072889520648,-0.9427331597045264,-0.22932271825337971,-0.11197367467686997,normal
2024-01-01 00:00:00.800,-0.05674567119428325,0.058067482453150264,3.7791420558788933,-0.16839294057904242,-1.3179267545299322,0.09471133441047283,normal
2024-01-01 00:00:00.810,0.15582400035898053,-0.17229901406102538,2.6122760349613525,-0.5333193125954399,0.4115740419582391,-0.12453317713217471,normal
2024-01-01 00:00:00.820,-0.037445728988746076,0.6664762696773006,1.4172502425833648,-0.16015563648985592,-0.30855217879133784,-0.1401130173932736,normal
2024-01-01 00:00:00.830,-0.19020486546526488,-0.05983316152228865,0.5203895470266005,-0.10802312617573333,0.009708038801518755,0.4063453040132737,normal
2024-01-01 00:00:00.840,-0.30193706967869244,0.2627128091225751,0.7264480962973463,0.24761305724225358,-0.7228781072495144,-0.13017870120632283,normal
2024-01-01 00:00:00.850,0.5163209954777788,-0.1166291509489809,2.071698650225775,-0.31566770065619026,0.292764417174294,-0.03402526351647883,normal
2024-01-01 00:00:00.860,0.3319825819484979,-0.20236074720364358,2.756109519085775,-0.0009597907215688467,0.39649342181283326,-0.2073648325801132,normal
2024-01-01 00:00:00.870,-0.4510958293245367,0.5235184449616149,4.033121191855124,0.5198066860822237,-0.19469361730272247,0.30302600937132146,normal
2024-01-01 00:00:00.880,-0.3157306298346006,0.09329497399559734,4.717945572601503,-1.2594754399204264,-0.34835222636561247,-0.13167005472043525,normal
2024-01-01 00:00:00.890,0.17520361279424268,0.21647411382615472,5.756650744579665,0.39924084953143446,-0.14597140268536504,0.07570008718283468,normal
2024-01-01 00:00:00.900,-0.17650945447698208,-0.027344595885859645,6.430160321945449,-0.7107367896655479,-0.6543073050838908,0.21178142032797975,normal
2024-01-01 00:00:00.910,0.004549023778041404,0.16716963670473284,7.745015569058968,-0.8709481042182085,0.6100252781891777,0.29508652916501943,normal
2024-01-01 00:00:00.920,0.2442034772607606,-0.18496846721182142,8.445512154376397,0.0987786890575697,0.09388884613586802,0.023977122487309814,normal
2024-01-01 00:00:00.930,0.03863673055638605,-0.5563967083229421,8.891253068962556,-0.08909634957950054,-0.1844163658137809,-0.009720578593089915,normal
2024-01-01 00:00:00.940,-0.03876491310710813,-0.1883643356783163,9.264600605881986,-0.8834225558598632,0.5522577324360454,-0.8292727474523445,normal
2024-01-01 00:00:00.950,-0.14207976029917516,0.11072700058550189,9.704565301506173,0.5493128166633569,-1.2137069437989931,0.4948867161310122,normal
2024-01-01 00:00:00.960,-0.025926781559133517,-0.6179317128878142,9.682897202086977,-0.31247476077108594,0.2693720359179755,-0.2552135328098185,normal
2024-01-01 00:00:00.970,0.11600527762830919,0.3180630600369836,9.80084812864517,-0.16554405636031483,0.6061518800279065,0.11364200664095983,normal
2024-01-01 00:00:00.980,0.5204299802295703,-0.15772468271648005,9.91506722730176,-0.6594624166798837,-0.7054216954745451,-0.5661185673829598,normal
2024-01-01 00:00:00.990,0.3195009337847201,0.14071973084723616,9.31509679252053,0.5795313860011777,0.3311480114820544,0.12095616137771377,normal
2024-01-01 00:00:01.000,-0.05983410855617975,-0.2775455686029367,9.263140876580744,0.07117095995419087,0.18511729101810862,-0.24230443795457202,normal
2024-01-01 00:00:01.010,0.2749694057348831,-0.06764551540751283,8.987343119844382,0.20660355637668928,0.43378662987782707,-0.6873567599198028,normal
2024-01-01 00:00:01.020,0.035142717596642614,0.30962315141773583,8.389984653802207,0.9798730652544652,0.5539746422412273,0.12236669098378539,normal
2024-01-01 00:00:01.030,-0.44441492493367374,-0.07586090909376995,7.6655384271938845,0.26871834254567173,0.22094473258136269,-0.3785335407458444,normal
2024-01-01 00:00:01.040,-0.03199545188491614,-0.02087676413235404,7.069938386667173,-0.034693734730984124,1.0743287869550013,0.48361316554407857,normal
2024-01-01 00:00:01.050,0.29840614551071026,-0.058464382883666226,6.315011156499063,-0.7594993703380903,0.2602051180791687,-0.057152061696618954,normal
2024-01-01 00:00:01.060,-0.17890883043050768,-0.6043768542788476,5.369732150749253,-0.796786436008943,-0.9478602210453848,-0.5372964811641807,normal
2024-01-01 00:00:01.070,0.280797127632305,0.25064343063226735,4.535721764945014,0.38007585895974727,0.15066474175810465,-0.2317401119701919,normal
2024-01-01 00:00:01.080,-0.0920048786425524,-0.1148753718008504,3.418055628795721,-0.3081081724487181,0.12251744043827048,0.4262477277380044,normal
2024-01-01 00:00:01.090,0.007946986437971962,0.8055034592319834,2.2521459265959383,0.6155804982810622,0.22436595976758875,0.04900777719118338,normal
2024-01-01 00:00:01.100,-0.35734487121145625,0.2288752250590425,1.2989169678441193,-0.30994745815538716,-0.2334253677327605,-0.40206813114888545,normal
2024-01-01 00:00:01.110,0.6210535730723571,-0.20863430059502902,0.18063429980498522,0.2495785106870414,0.6260637016802634,-0.17243370455804735,normal
2024-01-01 00:00:01.120,0.1360311642092979,0.3034545649820397,1.0545541610579332,-0.2757162382095416,1.5379406575006127,-0.8170244176393157,normal
2024-01-01 00:00:01.130,0.30252894036791955,-0.0852861981903147,1.7624389810479126,-0.033034648829891725,-1.0131877517253303,-0.08591814137761289,normal
2024-01-01 00:00:01.140,-0.13581279000364638,0.02741589018174544,3.165508682087813,-0.1408210483658695,1.3776061287031338,0.0012190381180626467,normal
2024-01-01 00:00:01.150,-0.43902138770322824,0.2707047184459479,4.358830067858147,1.2466064461069155,0.18434118533142518,-0.5900557973821754,normal
2024-01-01 00:00:01.160,0.3634825713772529,0.09311737385995185,4.978757515334348,0.03531213144297978,-0.10600639479549404,0.2154745328340762,normal
2024-01-01 00:00:01.170,-0.21355938931315352,-0.035012849791563376,6.143672761298047,0.46532118699718966,-0.484990137509961,-0.03377353099556169,normal
2024-01-01 00:00:01.180,0.4956157419952249,-0.33392668131826736,6.913370672412962,-0.15555819854329786,-0.7624738534974211,-0.2104905666188117,normal
2024-01-01 00:00:01.190,-0.05133065179506769,0.4473714820647848,7.680246666169974,0.3942051574957806,-0.3422293749763975,-0.6678461860457311,normal
2024-01-01 00:00:01.200,0.4873592176246797,0.12252130155319488,8.500993748910053,-0.21950436836449372,0.1571549191142978,-0.3898216279983434,normal
2024-01-01 00:00:01.210,-0.21870803699194769,-0.26797701538303637,8.597482215445307,0.4779494368974355,-0.09024221506456334,0.36616585139327107,normal
2024-01-01 00:00:01.220,-0.5291966497635697,-0.04326354351963307,9.44589227593698,-0.06669838873846996,-0.1282489188072057,0.19959707914514904,normal
2024-01-01 00:00:01.230,0.2094271485383593,-0.06458843703483354,9.568847825342646,-0.14476061212963706,-0.26155446952443445,0.0032408277945324953,normal
2024-01-01 00:00:01.240,-0.020414638780150304,0.31760591461032844,9.503136833971604,-0.07578894667449806,-0.2961738391144679,-0.08471753120836124,normal
2024-01-01 00:00:01.250,-0.0008161993685409294,0.18744181746734392,10.006976920162042,-0.0051821316191398015,-0.5233364868797288,-0.1510295660953548,normal
2024-01-01 00:00:01.260,0.3146123322194256,-0.1524634148888332,9.537579089171897,-0.42046251877606583,-0.017535845012380674,0.5336166082926679,normal
2024-01-01 00:00:01.270,-0.2646458673725949,-0.34666639526680815,9.179261888830077,-0.20194701249536656,-0.15708602713644548,-0.1314919835171009,normal
2024-01-01 00:00:01.280,-0.3883890941638884,0.07953897725036702,9.167993645810462,-0.16059250246632759,0.9779580463606757,-0.6716833891078121,normal
2024-01-01 00:00:01.290,-0.35053100575700585,0.2788110414711843,9.10291091166673,0.790392847039225,-0.34598996502910584,0.7107832496990463,normal
2024-01-01 00:00:01.300,-0.5046499882085299,0.23028877111242407,8.235693908583423,-0.8432112707438639,-0.924093142111386,-0.6966283831485157,normal
2024-01-01 00:00:01.310,-0.542586633592974,-0.3591330861121536,7.840321573645335,0.8296631625848029,0.48342436054796795,0.22002022177286712,normal
2024-01-01 00:00:01.320,-0.3855716819886564,-0.12509521783861685,7.160665907021951,-0.11488587705856494,0.353860147468756,-0.11198675143882597,normal
2024-01-01 00:00:01.330,-0.2922010955858961,-0.09051192208890597,5.860935130815304,-0.31297909915910876,-1.3779543180872038,-0.034880777053229006,normal
2024-01-01 00:00:01.340,-0.13768053979498834,0.025279991352323446,5.2579140508519435,-0.054692249159213384,-0.7288156225772987,-0.5769792403464264,normal
2024-01-01 00:00:01.350,-0.36430823325838024,-0.5156266120524461,4.152985288198285,-0.1724831192129245,-0.2486329962384137,-0.2599655676532992,normal
2024-01-01 00:00:01.360,-0.04489980045995362,0.057097490459765886,3.3184216660316186,-1.1648495280410744,-0.24355361889053154,0.1741832756529591,normal
2024-01-01 00:00:01.370,0.21937407030461772,-0.41849347117308516,2.223098342429031,0.044223838303869535,-0.5432745953763506,0.21641491066288723,normal
2024-01-01 00:00:01.380,-0.0755217851473273,0.07387201509444395,1.2499241252843163,0.30627955158036574,-0.14947773174157597,0.9836032989591643,normal
2024-01-01 00:00:01.390,0.11389109515530776,0.6034679695086982,0.14916280106200247,-0.841133265912208,-0.04705032206489486,-0.25605887961839113,normal
2024-01-01 00:00:01.400,-0.2872022714515011,0.30275306796564727,1.2586552861037552,0.5927240215139252,-0.23201515153639843,-0.23384540868119147,normal
2024-01-01 00:00:01.410,0.07114354118193769,-0.1311771856749191,2.2306284911766894,0.5548064587209973,0.3416136048975181,0.3324081328455664,normal
2024-01-01 00:00:01.420,0.12124094841457282,-0.3693468389151759,2.9929578494089197,0.37109472009200595,0.18854029346013892,0.21597800704929415,normal
2024-01-01 00:00:01.430,-0.2154610210548709,-0.2010581196657576,4.36501282566909,1.0589216772065932,0.35027044325368645,0.14592687739080107,normal
2024-01-01 00:00:01.440,-0.48457246959349326,0.028241027498266673,5.487383934402441,0.08479128310314547,0.6284755833278224,-0.39022626469112887,normal
2024-01-01 00:00:01.450,-0.08493747913091063,0.48707961350951273,6.235559449316184,0.3864359452081435,0.11774294770455027,0.08837275492090967,normal
2024-01-01 00:00:01.460,-0.03531093419809097,-0.7416676570601592,7.190354445067609,0.4153553767434052,-0.15446790545532718,0.08602642410311781,normal
2024-01-01 00:00:01.470,0.39059317497237084,-0.19702490654036856,7.662124908109012,-0.03384480968567413,0.02279233856268105,0.11954137289691845,normal
2024-01-01 00:00:01.480,-0.1627712717290281,-0.11794833138885727,8.407224084770878,-0.821980660565361,-0.366479744828899,0.2972285070834424,normal
2024-01-01 00:00:01.490,0.44582660421947357,0.2216385317164408,9.02417841502066,0.3973767737607561,0.18001389303684195,-0.2542049244688963,normal
2024-01-01 00:00:01.500,-0.7622260280846402,-0.034497285947578844,9.387177180555433,0.10980778464514293,0.02053118144263618,0.011572530972002053,normal
2024-01-01 00:00:01.510,-0.14007676846698897,-0.37582962851720575,9.448821418315399,0.03853874311231575,0.755154934408512,-0.06529874292776998,normal
2024-01-01 00:00:01.520,-0.19704452313360607,0.22882867140368524,9.936520900089606,0.030925647428390712,-0.9917040057139783,0.348516709662825,normal
2024-01-01 00:00:01.530,-0.1663987467065591,0.7934504488524216,9.8625748952809,-0.4774213944271423,-1.2812202184202792,0.38901332616901707,normal
2024-01-01 00:00:01.540,-0.21211736803033557,0.03305025866265225,9.504419149280404,-0.2701365441480009,0.12622444578165723,0.4097475731783303,normal
2024-01-01 00:00:01.550,-0.0697297449779032,-0.06238615388358776,9.71105547018536,0.12747051207183122,-0.24029611086271263,-0.3796797811456139,normal
2024-01-01 00:00:01.560,0.4318051945652014,0.0190688872096509,9.119631498502601,0.024397611287859906,-0.49459634185231055,0.47756052385411063,normal
2024-01-01 00:00:01.570,-0.10199452886433241,-0.22448925703597888,8.638670069117536,-0.6054998169007866,0.6775923124141637,0.05271053163299295,normal
2024-01-01 00:00:01.580,0.29640751935006054,-0.07147543311488179,8.0111956025959,0.3054004593739874,0.1475947694146014,-0.328467274701318,normal
2024-01-01 00:00:01.590,-0.08595441052652061,0.09332792420068667,7.535498671934814,0.6249602972079096,0.019762006237014587,-0.3674253948246052,normal
2024-01-01 00:00:01.600,-0.025629644299022283,0.31197876690368104,6.5715705298785325,0.21529102665303781,0.3213379379739465,-0.1378606917903721,normal
2024-01-01 00:00:01.610,-0.7630579053238628,0.04724241608930572,5.759849869164616,0.19424471376777785,-0.6934061964356348,-0.026670862732698246,normal
2024-01-01 00:00:01.620,-0.03248687688318618,-0.6764845818286087,4.911844905057382,0.19170631736368138,0.13626230934965516,-0.4315269258226508,normal
2024-01-01 00:00:01.630,0.12120657383465773,-0.4633842152744455,4.0034822052707515,0.044572927966440704,0.6954319026983348,-0.11485828424283846,normal
2024-01-01 00:00:01.640,-0.3960522718858201,0.022642467738967675,2.9899905034877254,1.4413214740624791,0.621146655220023,-0.17838240672283306,normal
2024-01-01 00:00:01.650,-0.240095514267064,0.03954629614990166,1.7050510018978313,0.1825037865929221,0.3160087390962253,0.8636999776036178,normal
2024-01-01 00:00:01.660,-0.31254234062005143,0.21658408473055538,0.9227096423824643,0.9190980175921566,-0.40287803159672314,0.23672607268738782,normal
2024-01-01 00:00:01.670,0.5685442968774354,0.3422984198913961,0.4320516368956374,0.018455158522562045,0.5515339352857275,0.37222415669657255,normal
2024-01-01 00:00:01.680,-0.35075824662075555,-0.23463917696719677,1.5537694616853954,-0.2030944160907857,0.3018455556651426,-0.8135933812827492,normal
2024-01-01 00:00:01.690,-0.274060942434274,-0.6524029287059835,2.2529159995308867,-1.3412380395318193,-0.5930983758386398,0.13279617617959982,normal
2024-01-01 00:00:01.700,-0.8647044442709692,-0.11276283380965378,3.6292386447807017,-0.03834699186437205,-0.32004880354666393,-0.09336119292831428,normal
2024-01-01 00:00:01.710,-0.5288279046678508,0.10472655932676357,4.771087083887433,-0.7834157172394428,0.24782656947586135,-0.3542220512025315,normal
2024-01-01 00:00:01.720,-0.00047255467216076935,0.4814147603418155,5.674903395453064,0.2960861923889668,-0.6944685838798264,-0.3221476607040011,normal
2024-01-01 00:00:01.730,-0.4407433801292547,0.23930750341909285,6.5215871813403785,-1.0921322818529353,0.2263433324347563,0.15351420301569638,normal
2024-01-01 00:00:01.740,-0.8803003631715277,0.351575323792767,7.524899638162168,-0.7084977683713224,1.0441902048313108,0.5977244909889474,normal
2024-01-01 00:00:01.750,-0.14938043004420012,-0.1046996831341917,7.890471864669833,0.36020404642501824,-0.47990541886803295,0.34879270559871556,normal
2024-01-01 00:00:01.760,-0.03346440460220786,-0.37699118200924686,8.587151945960201,-0.30742048335678224,-0.15853564130248674,0.08152321440814113,normal
2024-01-01 00:00:01.770,0.014946959926816657,0.06381021971415218,8.820107995859807,-0.593022826484508,0.29370624117537836,0.6170762485415489,normal
2024-01-01 00:00:01.780,0.04475699679775578,-0.07270955115401688,9.281362712607763,0.04164034436124464,0.2713040304523492,-0.046252579468342526,normal
2024-01-01 00:00:01.790,-0.24444091665138182,-0.710428991126999,9.768697394944896,0.4281041082791195,-0.3187580135144512,-0.30366505383088416,normal
2024-01-01 00:00:01.800,0.7646312928167421,0.24965215254511305,9.716262273612227,0.09562683525359952,-0.33486470441563854,-0.18632862003138131,normal
2024-01-01 00:00:01.810,-0.22926519840250847,-0.3045618534279654,9.93490902435034,0.007929446671593876,0.04410054745592365,0.16970312366412427,normal
2024-01-01 00:00:01.820,0.0661628991871007,0.1966221363846161,9.688825241858556,0.2415197280354477,0.2746839753477784,-0.761325961158997,normal
2024-01-01 00:00:01.830,-0.44067962980154923,0.19047595273128745,9.604263659817695,-0.8520379558049412,0.4824705208135568,-0.1699320736637002,normal
2024-01-01 00:00:01.840,-0.2486561215802825,0.02141135619103569,9.129981170233998,-0.45756972320221645,0.18263705631867577,0.4022154194493077,normal
2024-01-01 00:00:01.850,-0.5166977512405474,-0.11493079105530457,8.428778674674339,0.4078067210746022,1.5608864929527393,-0.3290337724124137,normal
2024-01-01 00:00:01.860,-0.0009797507916362198,0.26754231755170416,7.882685326165663,-0.021590671266459367,-0.3518946530981395,-0.5203628542874094,normal
2024-01-01 00:00:01.870,-0.18278082748231872,-0.16391148734258618,7.1458846791284785,-0.5052271422231269,-0.6158624875112592,-0.9448070792448138,normal
2024-01-01 00:00:01.880,-0.3612514460730943,0.0960922366066901,6.734570376256313,-0.7129741460415954,-0.549201357538376,-0.0605129765791513,normal
2024-01-01 00:00:01.890,-0.6574876169329793,-0.12141887132439848,5.660200270856484,0.5594989477318736,-0.5520158244785204,0.26539349536978896,normal
2024-01-01 00:00:01.900,0.09911108283977967,-0.15895900536608415,4.686979514024882,1.028266420728358,-0.2230846360845623,0.7185609113566083,normal
2024-01-01 00:00:01.910,0.17854277187647202,-0.31643975213847686,4.058084075892864,-0.9114085265679408,0.8528894838638588,0.22203892701875494,normal
2024-01-01 00:00:01.920,0.18420707694856053,0.19007307244133623,2.5296343708207414,0.15983280898983973,-0.3638355747499054,-0.2200351867474041,normal
2024-01-01 00:00:01.930,-0.08847853417171599,-0.37829382363150416,1.472352250456505,-0.9369509674385669,0.4480292907390617,0.3737587754822526,normal
2024-01-01 00:00:01.940,0.1434733919000857,0.5826986708905428,0.7788235061353167,0.014336435747340495,-0.35432508833072646,0.38603140347998727,normal
2024-01-01 00:00:01.950,0.20904415289426823,-0.06214302389245895,0.6889430839261067,0.9953846876067446,1.005217799645569,-0.30037952899037934,normal
2024-01-01 00:00:01.960,0.0912498322899013,-0.20848264161773145,1.7989059646809222,0.3496667204393183,0.14777922148749403,-0.5248679918624929,normal
2024-01-01 00:00:01.970,0.3659016272522819,-0.5537890650018317,2.9879797145986364,0.3084097461180156,0.5266156152271749,0.07756264297021517,normal
2024-01-01 00:00:01.980,-0.10533620879647561,0.2975737006328581,4.046677213950022,0.16053409119679712,-0.5035529068286758,0.3255023947961553,normal
2024-01-01 00:00:01.990,0.004855999874316583,0.40614534578150396,4.634339918920906,0.3840074980207034,-0.03859323009044216,-0.0810604222347627,normal
2024-01-01 00:00:02.000,-0.5049753367470914,0.09020815332454378,5.6131909038164745,-0.9038664561178753,0.2884929818884948,-0.4484167672176324,normal
2024-01-01 00:00:02.010,0.5663346593436814,0.04017575742262053,6.736075203831841,-1.3389725045012744,0.6589510746744888,0.2831008123235782,normal
2024-01-01 00:00:02.020,-0.2739804369933798,-0.2085998903021117,7.468367117487069,0.3854972127412382,0.6467245412987008,-0.33366888649227067,normal
2024-01-01 00:00:02.030,0.04621687207941901,-0.15946591721236644,8.144152182221092,-0.7704701762053042,0.015231507178014705,-0.20376707815491463,normal
2024-01-01 00:00:02.040,0.1382947395708787,-0.1634876905195644,8.776139670665215,-0.016162351505316686,-0.3784295522863255,-0.06329911347488211,normal
2024-01-01 00:00:02.050,-0.28807978367673515,-0.1792743939787151,8.959495654446677,-0.1777479742206358,0.6475101084591949,-0.3459499198686857,normal
2024-01-01 00:00:02.060,-0.05862276086491811,0.14574036963362033,9.429075115795381,-0.6510977474442068,-0.6204001654797302,-0.05376797226277675,normal
2024-01-01 00:00:02.070,0.15940583256382787,-0.47445661529497296,9.844720504517317,0.49351523175724615,1.5128500068782282,-0.41393899810867685,normal
2024-01-01 00:00:02.080,-0.07132420277627964,0.14957533454482067,9.8833135367715,0.10422175221416022,0.44916352532993215,0.3807041681648457,normal
2024-01-01 00:00:02.090,-0.13246402003114774,0.1619118527088637,9.787466398228945,1.2446037529421894,-1.2568770411793853,-0.05365842040594138,normal
2024-01-01 00:00:02.100,-0.13571147936334776,-0.20948010316352889,9.558680508462915,-0.17811101792038608,0.33682103183888706,-0.28770554533048615,normal
2024-01-01 00:00:02.110,-0.251234533667305,0.16779769245412682,9.30093898478006,0.5119829617366338,-0.9483962546385291,-0.10440477807007142,normal
2024-01-01 00:00:02.120,-0.09022889809891617,-0.13607217647720876,9.25841602776547,-0.15262855848925164,0.4059394425972809,-0.48408238347445953,normal
2024-01-01 00:00:02.130,0.06952398884234078,-0.33212666859239676,8.675108296068844,-0.06927689644991991,0.3506086974044034,0.1378884496088562,normal
2024-01-01 00:00:02.140,0.09671914827802956,-0.12301916877498445,8.07834499779543,-0.33222587614325916,0.36371487970751604,0.09175439767770055,normal
2024-01-01 00:00:02.150,0.2869286009181687,-0.06907354811787979,7.10007179554444,0.1775773096293224,0.9428701352910139,-0.011189240657534145,normal
2024-01-01 00:00:02.160,-0.021085488967443364,-0.16507340909547985,5.981999256698356,-0.041859970381860886,0.645538531748046,0.5859023679827472,normal
2024-01-01 00:00:02.170,-0.18761689410758067,0.07705353627857156,5.5038594778569845,-0.32011074457710037,0.8385884589461841,0.20678998250669803,normal
2024-01-01 00:00:02.180,0.21499095407474728,0.28861357183076886,4.419534555464946,-0.43448865673126885,0.3451781747145131,-0.10175421276986509,normal
2024-01-01 00:00:02.190,0.06979206021565292,0.36021402400431785,3.657092930769093,0.09984627771388906,0.15121948381205555,-0.37200070417593917,normal
2024-01-01 00:00:02.200,0.26401712846224296,0.19268680770345284,2.681398345990714,-0.403674876510487,0.8013367353565011,-0.4970402102618859,normal
2024-01-01 00:00:02.210,0.02326059415278611,-0.25758732789435546,1.3864665311272018,0.09214315768857095,-0.05923408954798236,-0.054562767638150586,normal
2024-01-01 00:00:02.220,0.12669621919537752,-0.09736388258728626,0.3299034849296265,0.04923522528227799,0.4089418918074913,0.56332107633323,normal
2024-01-01 00:00:02.230,0.08542140216633368,0.1937672143485456,0.8031655841170943,-0.3900043957112712,0.3107165912278176,0.05987850603324706,normal
2024-01-01 00:00:02.240,0.1863119981138704,-0.09812883121537141,2.015976704765521,0.2819950290194182,-0.483908128964603,0.3632819344223558,normal
2024-01-01 00:00:02.250,-0.3189442124321477,0.009889994346305093,2.7092070630744782,0.16008655895311905,-0.02321097325312887,-0.12588789862477065,normal
2024-01-01 00:00:02.260,-0.06050913717175676,-0.764975636352557,3.909328336314358,0.41258134803436325,-0.3918986489417804,-0.18853334064123928,normal
2024-01-01 00:00:02.270,0.024286497009782543,-0.3740923581432022,4.990667343834515,0.007298113483489171,-0.21433346775452103,0.4920137323029353,normal
2024-01-01 00:00:02.280,0.48015106656897694,0.20113630873677255,6.044902165796329,0.23395991983885006,-0.1413925148478148,0.2978288039360203,normal
2024-01-01 00:00:02.290,-0.04984436371136281,-0.10495324110223829,6.861059620569486,0.05940109792856462,0.3492833663128991,-0.43827211072477706,normal
2024-01-01 00:00:02.300,0.10783978336155718,0.44264649013731183,7.670762385087453,1.161548500246128,0.764950235785331,-0.7714558948019212,normal
2024-01-01 00:00:02.310,-0.08105056905149464,0.24965225304996594,8.242145522470457,-1.3314193626748465,1.1290493979606209,0.2851881172640505,normal
2024-01-01 00:00:02.320,-0.640386916429109,0.0074468808381989784,8.620754165303795,-0.7281951575032666,0.6291142662688578,0.09962608792126451,normal
2024-01-01 00:00:02.330,0.3414342274825079,0.0001156647840199419,9.307232180321671,-0.5165033369550411,0.6614579014789089,-0.045555790611168503,normal
2024-01-01 00:00:02.340,0.17302719296794067,0.34872218828414403,9.63373779043662,-0.8254724239343582,0.3790438812079097,0.08924036865886646,normal
2024-01-01 00:00:02.350,0.34231041308766613,0.035469376318840506,9.929690384438093,-0.23320581960939382,-0.5786374437535388,0.4660393909205296,normal
2024-01-01 00:00:02.360,-0.43145284184312394,-0.24305338109763064,9.554860541665834,0.23955526416341952,0.540485097248047,-0.3773235126854431,normal
2024-01-01 00:00:02.370,0.056105755060512005,0.33065942584128705,9.681515885506773,-0.2732765558243529,0.02919834827596547,-0.652530713762836,normal
2024-01-01 00:00:02.380,0.02424378518511863,0.2534960296825649,9.594330769491526,-0.49553132656941107,-0.5163423794989506,-0.06200654252705871,normal
2024-01-01 00:00:02.390,-0.49254300230773557,0.039361693960730075,9.406215624839033,-0.5896138767260738,0.22696878016027197,0.2505228139021064,normal
2024-01-01 00:00:02.400,0.11054701650182065,0.016254260427683423,9.21077441127798,1.3936028900066388,-0.5843420482803569,-0.09455177494088379,normal
2024-01-01 00:00:02.410,-0.2079736227593386,0.11246747630819433,8.436524373168657,0.5665648709942795,0.0355146038463341,0.14598741118839317,normal
2024-01-01 00:00:02.420,0.11810265037858501,-0.32501315620597687,7.815760896918372,0.037976804770900964,0.5045616416733492,-0.16761220120386805,normal
2024-01-01 00:00:02.430,-0.5203945117230917,-0.007973337976732327,7.055340935492565,0.13796793214909142,0.5559821748236091,0.10052731599569019,normal
2024-01-01 00:00:02.440,-0.28920883903083816,-0.14351824433869137,6.038591453853442,-0.5465666219175144,-0.5254687544316186,0.05829942226693731,normal
2024-01-01 00:00:02.450,-0.23805964312876862,-0.10501831863953597,5.3294421216575225,-1.1372945357058661,0.0320750236613968,-0.5464065174901528,normal
2024-01-01 00:00:02.460,-0.48004166207655524,0.2566901139891444,4.349304921187272,-0.1268398121974684,1.4430066609348189,-0.6518380556036008,normal
2024-01-01 00:00:02.470,-0.011113869348817168,-0.2986786490954597,3.4181471924984463,-0.7667985584595232,0.4919604443907868,0.006724110981143213,normal
2024-01-01 00:00:02.480,0.361028093073063,0.5169785697886385,1.978291453712723,1.1220889625612203,-0.510736954797402,-0.05899896574725629,normal
2024-01-01 00:00:02.490,-0.03325460373831771,0.2717110662323324,1.1166136839450795,-0.24183057421618168,-0.6056886273039185,-0.4419786352677286,normal
2024-01-01 00:00:02.500,0.15953637657725805,-0.2014145599433456,-0.14752780242331545,1.0815728005241227,-0.36382725506429364,0.0528766384500967,normal
2024-01-01 00:00:02.510,0.4094492280520946,0.4620771728924086,0.8987584497330758,0.04687320262553902,0.012672820420657132,-0.19097235053237166,normal
2024-01-01 00:00:02.520,0.13727382463968796,-0.2914547716994192,1.966079501995177,-0.7331567509581501,1.0745660993492114,0.11086876416935997,normal
2024-01-01 00:00:02.530,-0.13769430531638008,0.11882621810993384,3.217364252672521,0.5144020735855276,-0.1438777217198143,0.3472297868642233,normal
2024-01-01 00:00:02.540,-0.5963905668185034,-0.09691933615656848,4.182025557805358,0.01702535384566289,0.6371199160587666,-0.46901591388061503,normal
2024-01-01 00:00:02.550,0.07764493057972666,0.5036995338059281,5.249692600838343,-0.147737154925622,0.34552175842388944,-0.06150444936709957,normal
2024-01-01 00:00:02.560,-0.1239590557548785,0.14218813740115385,5.721348465266049,0.4276066406338539,-1.2905754866937655,0.3814983441521219,normal
2024-01-01 00:00:02.570,-0.16223198719493215,0.2656263626457408,6.863560979195693,0.3855996120594595,0.0783275755208756,0.8729071657717207,normal
2024-01-01 00:00:02.580,0.18955373103024958,0.027048459494424786,7.644323671924262,-0.1167216596787693,-0.5027132222957905,0.04722063621663168,normal
2024-01-01 00:00:02.590,0.13648459006485128,0.2191888138545985,8.253036046031154,0.5120782843693227,0.07372289571503929,-0.034151122574925454,normal
2024-01-01 00:00:02.600,-0.4918029936882644,0.16622026300650658,8.944984105098822,-0.1746328239937885,-0.7709590865246564,0.6188993623565706,normal
2024-01-01 00:00:02.610,0.04614815695020958,0.05602535854135798,9.307612184488995,0.6047718424425006,0.08902457219085366,0.2740104424600151,normal
2024-01-01 00:00:02.620,-0.12192625739638094,-0.0518938608319173,9.268197885453592,-0.3448327176092006,-0.18113299638709238,0.43716300316372,normal
2024-01-01 00:00:02.630,0.22820494222012186,-0.17811049982442498,9.848992370587018,-0.9953798883850978,-0.20800362641954698,0.06581911826088986,normal
2024-01-01 00:00:02.640,-0.031753472310494815,-0.24574662315811932,9.847888122656501,-0.06702656797385223,1.3696437851406167,0.1839946929276102,normal
2024-01-01 00:00:02.650,0.24967897733697947,0.05628157853510346,9.539786388489135,-0.3098924200202331,-0.4143001836700154,0.23674718429501393,normal
2024-01-01 00:00:02.660,-0.22212430508046746,-0.5056674651467592,9.579038340224116,0.24914799730176698,0.06607051583566972,-0.11411956932722117,normal
2024-01-01 00:00:02.670,-0.14364374928741747,0.2597210613294813,9.380730053163546,0.1848943160508454,0.5728964444769128,-0.13612555740145954,normal
2024-01-01 00:00:02.680,-0.18629982372319173,-0.07081606971162245,8.619989423453013,-0.4536262960318993,-0.2122791591913769,-0.11513079482495919,normal
2024-01-01 00:00:02.690,-0.07910117602103867,-0.07236021386705642,8.225248603393887,0.7420439793111021,0.490922047704902,0.21038009816243153,normal
2024-01-01 00:00:02.700,-0.09697321541136632,0.478054108977928,7.309628245145192,0.02806754244833891,1.3379640186038135,0.9110210577682905,normal
2024-01-01 00:00:02.710,0.32845968014305765,0.09204192970594532,7.064473223766022,-0.6963205669223222,0.949438784209675,-0.4104939374381212,normal
2024-01-01 00:00:02.720,-0.3171339437640008,-0.07756922358179845,5.813773280157265,0.4565343908677296,-0.03067960778725873,-0.201221227662236,normal
2024-01-01 00:00:02.730,-8.069187677025575e-05,-0.09066478293111557,5.156645881707939,0.07381601752574529,0.7630910359169992,0.32407623515552797,normal
2024-01-01 00:00:02.740,-0.3719717407489717,0.4260512918008027,3.9229507763649276,0.12317526914958186,0.41686364700736633,0.16456596007581867,normal
2024-01-01 00:00:02.750,-0.453778769607346,0.61821890682174,3.0036985734157677,0.22384571562426356,0.4671233715494431,0.6302062712577736,normal
2024-01-01 00:00:02.760,-0.20185786064187491,0.10467613901258883,2.301467888948632,0.0530458552954987,0.5634533976290499,-0.8427386967366639,normal
2024-01-01 00:00:02.770,-0.47312480578692595,0.10045537140392083,0.5497583628659682,0.003880229981389424,-1.1827720917814342,0.6517486996164572,normal
2024-01-01 00:00:02.780,0.026987058232066704,-0.04705266355310614,0.32235040358224337,-0.8786076136228673,-0.5041978526230139,0.24184114837253212,normal
2024-01-01 00:00:02.790,-0.24297027413027517,0.058340625657403826,1.302080598941404,-0.454354226488927,0.8569972581591125,0.26507207387380344,normal
2024-01-01 00:00:02.800,-0.18350461196000017,-0.18214465923239265,1.9071559204323845,0.38209246304164374,1.1708724312635326,-0.06476840355981295,normal
2024-01-01 00:00:02.810,0.10938677818450526,0.25380020856024144,3.6029849427614526,-0.8353451601749764,-0.032023587691908134,0.1027187642503705,normal
2024-01-01 00:00:02.820,0.4372512240442264,-0.5447835249881697,4.621880836824516,-0.708897931211708,1.0885073007916852,-0.5555060067323417,normal
2024-01-01 00:00:02.830,-0.18270856835581603,0.033734406220527376,5.434584215368904,-0.15228765207039663,0.45585807397308126,-0.03763354091505846,normal
2024-01-01 00:00:02.840,-0.6065516030256719,0.15106571691085735,6.422605214015042,0.3393250047007637,-0.20835586611840004,0.015122585586319418,normal
2024-01-01 00:00:02.850,-0.14280353965472267,0.045748426756571335,7.130258671906996,0.6915060677843289,0.768275726590172,-0.02532300053391768,normal
2024-01-01 00:00:02.860,-0.025982609832763504,0.29112665610736005,7.838268100111106,-0.44717576146031784,-0.7311111167282679,-0.15761835540222416,normal
2024-01-01 00:00:02.870,0.31375705040910296,0.2936397442059936,8.36125310734425,-0.4158440191204474,1.1352819847366638,-0.1962325481603852,normal
2024-01-01 00:00:02.880,-0.03576232742481679,-0.547698360563952,8.878838268540752,0.1796821610735071,0.7450620847608992,0.03526298860683077,normal
2024-01-01 00:00:02.890,-0.2852580284568733,-0.40784564989746624,9.488664088357485,-0.08465041960177522,-0.21876570041966936,0.3383356052973255,normal
2024-01-01 00:00:02.900,0.2528306675365113,0.022942318842964545,9.80923590289999,0.7013233597816715,-0.01355842398715846,0.24600275406238215,normal
2024-01-01 00:00:02.910,0.3012799812225385,-0.5654270657588508,9.869212363160106,-0.400284989363191,0.10974342789349532,-0.08597939957723501,normal
2024-01-01 00:00:02.920,-0.07710814917291883,-0.2310718702540975,9.764933299066566,0.03406861658100799,-0.4429900130086428,-0.17616573539840086,normal
2024-01-01 00:00:02.930,0.06629977242877545,-0.33927401690582715,9.69844065179905,0.09818087433176603,-1.137542132786072,-0.14346350910369413,normal
2024-01-01 00:00:02.940,0.08836335289361175,0.26257239507471275,9.599685034028147,-0.6881363834236485,0.22621783447510405,-0.38719736864736287,normal
2024-01-01 00:00:02.950,0.7508706850745137,-0.34293905095630195,9.257546138047964,0.5458310250890842,-0.12639261561730722,-0.2568024159272875,normal
2024-01-01 00:00:02.960,-0.1955163574149525,0.12740706615524097,8.721410575897616,-0.06606162948281745,-0.9342586829902235,-0.25858523085053325,normal
2024-01-01 00:00:02.970,-0.1391225630175217,0.25780802992431456,8.10002096569782,-0.43409339480264997,0.5275389760942729,-0.05837981021179351,normal
2024-01-01 00:00:02.980,-0.04490512890278866,-0.4034149374807435,7.6705057638736935,-0.5927628772655662,0.031378413444385765,0.1916616507238692,normal
2024-01-01 00:00:02.990,0.19888056416437255,-0.18620966861214178,6.832620129296631,-1.0486309339849968,0.31669463065207376,-0.6823837704357688,normal
2024-01-01 00:00:03.000,-0.10295749546851997,-0.3441064081672516,5.785717391458069,-0.7472179767874666,-0.545040401606592,0.043955291353241256,normal
2024-01-01 00:00:03.010,0.13859336704171946,-0.2359355717770613,4.576527674171383,-0.5412115046859024,-1.1299999128773357,-0.6725341165375738,normal
2024-01-01 00:00:03.020,0.254270420223663,-0.13037708645536367,3.901097208926606,0.3147239866362166,-0.5405953476203927,-0.13469231972643397,normal
2024-01-01 00:00:03.030,0.5746755392313648,0.37845224995180854,2.592921255457573,0.8750997820595867,-0.6153462967218284,-0.241680317210135,normal
2024-01-01 00:00:03.040,-0.05835530536306961,-0.09323786729961135,1.4173440810892526,1.0166802659920484,-0.36965483013180533,-0.6683580523832867,normal
2024-01-01 00:00:03.050,-0.10437451172756247,0.16705726904060084,0.5766909532896568,-0.13476026041330977,-0.5941303878040793,-0.05955735652307949,normal
2024-01-01 00:00:03.060,-0.11042140542207964,0.09966319370766087,0.5602520664119105,0.40250525255096803,-0.006007944787450143,0.44140786378073665,normal
2024-01-01 00:00:03.070,-0.5630059253861188,0.07498250776362206,1.8187802480316406,0.01884072657448999,0.11943236777039976,0.30844464260520027,normal
2024-01-01 00:00:03.080,-0.3616326803171287,-0.003042798108848867,2.673227583603375,-0.2932745925399203,0.9398929412034086,0.23322375218781974,normal
2024-01-01 00:00:03.090,0.03376952035219755,-0.03780914319471426,3.528485588621764,0.6225786738573085,0.4406297518632032,0.23625638906804533,normal
2024-01-01 00:00:03.100,0.034313976105711394,0.22756670325716175,4.860643515961718,-0.667612317388251,0.5005724571275251,-0.06012235326571047,normal
2024-01-01 00:00:03.110,0.7589426433729395,-0.2293971620478317,5.3714047804807175,-0.425679217882185,0.20340979797882328,-0.6521185974067757,normal
2024-01-01 00:00:03.120,0.3580887580733522,-0.21243753188973674,6.690063541583043,0.12264713468735663,-1.1947082232654695,-0.05320572829031121,normal
2024-01-01 00:00:03.130,0.21928527720584517,-0.17361316572044755,7.20931597719529,-0.5718284980656628,-0.2509747594320247,0.6460822698274805,normal
2024-01-01 00:00:03.140,0.4267817338597782,-0.25528676863415073,7.9095609737397075,0.14769969321630005,-1.132471840931811,0.22462261557967947,normal
2024-01-01 00:00:03.150,-0.20306188318533125,0.4123380094982171,8.856625647833772,-0.6516788353623402,-0.7657018158318912,0.33879429189855426,normal
2024-01-01 00:00:03.160,-0.1791107244792665,-0.20328848405399583,9.029863177290087,-0.4413811427864058,0.20348816750306778,0.006370092895815876,normal
2024-01-01 00:00:03.170,-0.23286077873446315,-0.012974081808604146,9.681768238852866,-0.23775848017716467,0.9277604091382166,0.09437152215194247,normal
2024-01-01 00:00:03.180,-0.05785610466040004,-0.25045258383488406,9.837178063491733,1.0063014308836205,0.1811682675071126,0.08549287605688992,normal
2024-01-01 00:00:03.190,0.6304100861679063,-0.038560611779921386,10.039898015907179,-0.7734370152965989,-0.1696365488459319,0.6553481798815436,normal
2024-01-01 00:00:03.200,-0.08831331567938747,0.06599222501571199,10.014385756589324,0.6098336357938335,-0.7062055691113961,0.5331546357914767,normal
2024-01-01 00:00:03.210,-0.20096612633793842,0.20568155148577896,10.136666184866908,-0.46414809088264547,-0.22309777435304706,-0.22329222579806934,normal
2024-01-01 00:00:03.220,0.002999918773833008,-0.264048316282078,9.365983200955373,0.2612424572860442,0.13395061649550685,0.37407286990416366,normal
2024-01-01 00:00:03.230,0.23989697334679522,-0.20169377106340775,8.90281725988221,-0.05536142196809828,-0.6994285952740987,-0.45738096521607247,normal
2024-01-01 00:00:03.240,0.1338145809509014,0.01474752315632415,8.590423632188555,-0.025589638913559455,-0.09229198704751222,-0.5193547378745752,normal
2024-01-01 00:00:03.250,0.2459838223312018,-0.30020832181573703,8.004801564399088,-0.7013522085033477,-0.6068940783607303,0.13485955450947076,normal
2024-01-01 00:00:03.260,-0.36635865790852806,-0.04765689087104854,7.433571193087268,1.5090124486951162,-0.24716406163545035,0.5506250957657177,normal
2024-01-01 00:00:03.270,-0.26524051231585466,-0.04803203553097924,6.313475544618381,0.27535630229028113,-0.8478730763317341,-0.13133000073027085,normal
2024-01-01 00:00:03.280,-0.07593518274457718,0.536247927579003,5.61868134111348,-0.25633345510057354,-0.8200719960764594,-0.04868261765255141,normal
2024-01-01 00:00:03.290,0.021063561442148455,-0.23520238187739495,4.326732045620576,0.5093607826418101,0.23399505939603368,-0.03857811475342294,normal
2024-01-01 00:00:03.300,0.3994249898048939,-0.15831809224763194,3.729058717729176,0.7225601815612016,0.21080659985735825,-0.4163040067640793,normal
2024-01-01 00:00:03.310,-0.38352227184869453,-0.3085741431719166,2.666970315265157,0.35196968214680624,-0.28889965138761015,-0.18561349069269256,normal
2024-01-01 00:00:03.320,0.18545647932402384,0.1836287070322078,1.1741276922842436,0.4495146196576354,0.29710990518659547,-0.5416329981854677,normal
2024-01-01 00:00:03.330,-0.07419527124604912,-0.42289006382358446,0.6943778245481813,0.5615410917536372,0.873694350702303,-0.30562197625331466,normal
2024-01-01 00:00:03.340,0.17714449525010736,-0.40571740405426115,0.8300424255895367,0.24899728439977842,-0.7687934883488428,0.39022745229097094,normal
2024-01-01 00:00:03.350,-0.20054104505258735,-0.07473299402500509,1.7634312842613509,0.8522344034847606,-0.3194597830735205,0.2484275479866945,normal
2024-01-01 00:00:03.360,-0.4201931113858683,-0.10128559564174798,2.990207359009978,0.22711900905972082,-0.4330257742944891,0.5789948863261355,normal
2024-01-01 00:00:03.370,0.34702498048641467,0.4289599941556324,4.0367572118351704,0.9545945463315408,0.44258780027940875,-0.35767986132664065,normal
2024-01-01 00:00:03.380,0.08196213541910237,-0.21310896460508869,5.171515683920062,-0.7235750805392155,0.6413249723613286,0.3383378928075501,normal
2024-01-01 00:00:03.390,-0.5833310818990578,-0.11020906129541264,5.866235065912111,-0.7717490120267921,0.6490588142659849,-0.19759342758602572,normal
2024-01-01 00:00:03.400,0.20295334913072244,0.22307271855382824,6.576971576956024,-0.3988800286290273,0.33627640063985287,-0.14367153441348893,normal
2024-01-01 00:00:03.410,-0.3045500320709638,-0.13749527013321755,7.629525607630226,-0.5502158102813084,-0.13809072441390374,0.11648538690145158,normal
2024-01-01 00:00:03.420,-0.036201635007714936,-0.18940211011184335,8.120134482236516,-0.3215529224297038,0.3742786456979955,0.06490379252199201,normal
2024-01-01 00:00:03.430,-0.009878448157018561,-0.013951748425963579,8.69989975803015,-0.3600096757517117,-0.12896845238025784,-0.5576756585310076,normal
2024-01-01 00:00:03.440,-0.4067077424369221,0.5170887204207311,9.209872778512212,-1.4764445374134973,-0.024024795553170848,0.13686000062886308,normal
2024-01-01 00:00:03.450,0.32505941522682075,-0.14694646757854687,9.381982590831166,-0.8416924368313258,0.6985678239057745,0.3129309647941527,normal
2024-01-01 00:00:03.460,-0.16151924377809865,0.017077336146769245,9.491168609772753,-1.1246927012384267,0.5493245909731269,-0.5762460441201831,normal
2024-01-01 00:00:03.470,0.47958071197195806,-0.01994058334336485,9.764733326619629,0.01781994975871435,-1.4643780210087745,0.43826980723828113,normal
2024-01-01 00:00:03.480,0.13890439900446028,0.28333492224554707,9.7112702507242,-0.5129804921937229,0.3796805422874952,-0.5029146305684601,normal
2024-01-01 00:00:03.490,0.14769587630041356,-0.3548178113742099,9.470983448015723,0.6561421889182607,0.8222064405605903,0.4673340156963148,normal
2024-01-01 00:00:03.500,0.07455782274791442,0.3318896668827723,9.353664267270629,-0.4427532979402921,-0.446892047583292,0.24794087159880973,normal
2024-01-01 00:00:03.510,0.5825044083811411,-0.039958328719861096,9.009971944950626,0.26160909382240616,-0.3236666809847434,0.6990176266150263,normal
2024-01-01 00:00:03.520,-0.3101787765200227,-0.20306065175363594,8.446025670134897,0.5448556401686397,0.30786815620612235,-0.44799180730040694,normal
2024-01-01 00:00:03.530,-0.23781078081213483,0.14119992675118043,7.954698938693777,-0.13225123404935069,0.9229028260904246,-0.16595377127134445,normal
2024-01-01 00:00:03.540,-0.20208549929086753,-0.17316132025348138,6.929336196979668,-0.5134790957436748,0.33026019184478267,-0.325460811708168,normal
2024-01-01 00:00:03.550,0.33840042676075816,-0.13939449468342663,6.137975235196843,-1.1455579606587403,1.2447575843108687,0.6363320109300515,normal
2024-01-01 00:00:03.560,0.30897543866660615,-0.37897901320228505,5.403199739759005,-1.3970211950385456,0.23435845995359728,0.9884573708419255,normal
2024-01-01 00:00:03.570,0.021342401863740236,0.1184478325007462,4.490500813801828,0.021180031842818005,-1.4851859690227207,-0.15267159443851813,normal
2024-01-01 00:00:03.580,0.07571452153642609,0.24230826790652188,3.3598543130925145,0.17936930556910136,0.7530063551822997,0.5924401292857128,normal
2024-01-01 00:00:03.590,-0.4956664055277071,-0.1663752157674368,2.683825344644927,0.8188575892244869,0.2619650141381029,0.3357825610549896,normal
2024-01-01 00:00:03.600,0.4394213477117477,-0.5343991479702276,1.5425363607489917,0.5575292023462081,0.502324184600609,0.4788122595779011,normal
2024-01-01 00:00:03.610,-0.0698654448597228,-0.07361079046405004,-0.11034484211974697,-0.5977754173018748,-0.05378847750153651,-0.5033371674561833,normal
2024-01-01 00:00:03.620,0.03252404507111085,0.1205974675928588,0.5883669503931792,-0.2696666236871906,0.060956559096137744,0.1548058985817026,normal
2024-01-01 00:00:03.630,-0.09352706753260358,0.28642713586785384,2.194641663876044,-0.33381321713224543,0.3133439370070461,0.032453344009915785,normal
2024-01-01 00:00:03.640,0.19206801165762655,0.25453187922362985,3.4199107843911967,0.6601491319657673,-0.6384982864387124,-0.7224476361448647,normal
2024-01-01 00:00:03.650,-0.06734990526987071,-0.15911323173286776,4.472398432980388,-0.03838285253689485,0.00799579661524383,0.6042226915088926,normal
2024-01-01 00:00:03.660,0.033011784436209404,-0.43966073578859205,5.140106302839363,-0.4855548967774132,-0.579102308607555,0.008451749128048027,normal
2024-01-01 00:00:03.670,0.023900813029806997,0.5367460894880741,6.279147097322364,0.73747896421721,0.4231440494345163,-0.06941446241727715,normal
2024-01-01 00:00:03.680,-0.15439205827196587,0.07355029530308514,6.799619819743336,0.22157423293607922,-1.4366848856838734,-0.38139469099238493,normal
2024-01-01 00:00:03.690,-0.18518959930828552,-0.0988401816507599,7.612184793256831,0.04738404284351221,-0.29211330961326043,0.0319474742857066,normal
2024-01-01 00:00:03.700,0.11542727563504547,-0.1473567303123122,8.334399903215338,0.673923170054181,-0.24680419399635484,-0.6167754164464855,normal
2024-01-01 00:00:03.710,0.11278132900707216,0.17143128789095965,8.827195643890953,0.22469371093997945,0.628757653788956,-0.06738030562101084,normal
2024-01-01 00:00:03.720,0.21815048967150102,0.2935120271993549,9.115556733023395,0.04445380988569554,-0.18242391755305223,-0.35163577000278434,normal
2024-01-01 00:00:03.730,0.4323208306442002,-0.12202490252593623,9.520060358648404,-0.6572386544613671,-0.6384138426424879,-0.0801204265365021,normal
2024-01-01 00:00:03.740,-0.37091057731135074,-0.022755570981084668,9.444950793653227,0.04557577983719155,-1.123253918726585,-0.2215282062252598,normal
2024-01-01 00:00:03.750,-0.55231100021335,0.2553190808043075,9.685056073905251,-0.08292005896545666,-0.17487597858658976,-0.16167044335964934,normal
2024-01-01 00:00:03.760,-0.12269065332030019,0.216720502839414,10.018614882868437,-0.31343477572225475,1.2221034835628224,-0.4247759967414357,normal
2024-01-01 00:00:03.770,0.37935131306229336,0.5916953813434818,9.482046047986374,0.24562064382887205,1.7096519176563667,0.4251438569093919,normal
2024-01-01 00:00:03.780,-0.014656941500334315,-0.3082826225455239,9.325420287325892,-0.711846194747926,0.16387866378391186,-0.0880159748821803,normal
2024-01-01 00:00:03.790,-0.5460290130976958,0.37968390581580075,8.695797399208757,1.643175588700154,-1.5514011093390987,-0.557299003231018,normal
2024-01-01 00:00:03.800,0.4755913549578496,0.025970448653137423,8.572129721964835,-0.6827725087618005,-0.24691360303184834,-0.27132972413267065,normal
2024-01-01 00:00:03.810,0.14894904525965083,-0.5936892936662296,7.470303537154638,-0.7237060810539059,-0.24674944094759343,0.07385793877575281,normal
2024-01-01 00:00:03.820,-0.4486426303273054,0.41044286323856277,6.81409400538424,-0.4284520437071337,-0.13568572066892626,-0.6062158760873798,normal
2024-01-01 00:00:03.830,-0.24981815583555794,-0.12042560677721986,5.976553150474422,0.37217786616113807,0.2805507790898191,0.6707015150056886,normal
2024-01-01 00:00:03.840,0.02860339669600597,0.5012414999839457,4.998703114456762,0.0666849682243157,-1.2222800933842426,-0.2202398749416963,normal
2024-01-01 00:00:03.850,-0.1671208816415106,0.13716483192356704,4.067192795060346,-0.7875541160976438,-0.8618741717655658,0.10794091432672893,normal
2024-01-01 00:00:03.860,-0.04146844835341534,0.07304950810077326,2.8815000206802432,0.6233664946175198,-0.6066034064118092,0.6414353798892383,normal
2024-01-01 00:00:03.870,0.15416421969023095,0.34449303901574174,2.1924292544771764,-0.20033120033524815,-0.5554926576701588,0.31973224181463167,normal
2024-01-01 00:00:03.880,0.0006291666157359906,0.014290115090140162,1.1001589309943212,0.34213559842193086,0.32103367197626687,-0.267571323697973,normal
2024-01-01 00:00:03.890,0.4158369863991414,0.5234552127771284,-0.10171544598697706,0.4396201720732332,-0.2548655404131588,-0.3742993533638093,normal
2024-01-01 00:00:03.900,-0.058095515042671846,0.19333046473095247,1.2137977145564858,-0.007635618854707094,0.8626516192545601,0.3034643893461432,normal
2024-01-01 00:00:03.910,0.44555199092744446,-0.5895182649779293,2.243287936768737,-0.9217909274752989,0.31457544556367845,-0.3054176415322028,normal
2024-01-01 00:00:03.920,-0.17590910596845677,-0.0037580813231148113,3.2743985883458846,-0.7399950275784551,-0.22433436143052196,0.14349282828623092,normal
2024-01-01 00:00:03.930,-0.35025553992495045,0.11905237368742717,4.4007232702721,1.0470697140767409,0.028993473046329998,0.18435997385009198,normal
2024-01-01 00:00:03.940,-0.6283350806910905,0.06422949976398866,5.3700275617446955,-0.21649743812704778,1.2943558883614188,0.5020610406273184,normal
2024-01-01 00:00:03.950,-0.2606319408378294,0.36025293346987847,6.161783148478329,0.5690564270826255,0.28616924014071227,0.19714681765151695,normal
2024-01-01 00:00:03.960,0.026565177712538083,0.1618990022931494,6.969150190621892,-0.2434719892971043,-1.707444526459019,0.09984652230735763,normal
2024-01-01 00:00:03.970,0.28574410997028843,-0.4740045244152903,7.742405525725094,1.5276818647656831,0.09492945829392468,-0.014082968947189101,normal
2024-01-01 00:00:03.980,-1.0292560798731982,-0.1000112473373702,8.244658467605785,-1.4461986398267845,0.7188394336819898,-0.08489020975316933,normal
2024-01-01 00:00:03.990,-0.013570497510283165,-0.09785154155888846,8.944131107091899,-0.43817004444546986,-0.4736302668148223,-0.1712802590581309,normal
2024-01-01 00:00:04.000,-0.2924948267454233,0.40614426660513303,9.22343132087929,-1.2473447198922993,1.1185839136096665,-0.35433303612491573,normal
2024-01-01 00:00:04.010,0.2102755961823561,-0.1341597487957621,9.678144584408123,-0.6814454172922814,0.44801111287519235,-0.4524028282673879,normal
2024-01-01 00:00:04.020,-0.1552487745284607,0.013932879984710763,9.882932192088388,0.7892723592937811,-1.2918063482264093,-0.11193083390264491,normal
2024-01-01 00:00:04.030,0.0881645172989084,-0.33891010494059526,9.900726049764739,-0.431010494657616,0.3134960994329487,-0.3470767260104741,normal
2024-01-01 00:00:04.040,0.5381171230945239,0.12117520156388194,9.763972534990438,0.3625322877403412,0.5816329612306237,0.17717159963224416,normal
2024-01-01 00:00:04.050,0.03128530306485227,0.37432237226129955,9.714282395548326,0.530638759975474,-0.589633447526388,0.07841046410321806,normal
2024-01-01 00:00:04.060,-0.0524603496149596,0.047530181578283204,9.290954340180594,0.2765629731438597,1.2892682256077608,-0.09268850487993006,normal
2024-01-01 00:00:04.070,0.29197420468344315,-0.021383557888629,8.701302680181568,0.9506950367768141,-0.7060233822943787,0.09145311402685488,normal
2024-01-01 00:00:04.080,0.08565175620513629,0.6747811830411101,8.07294524158877,-0.9513591643266697,-0.05327406644980591,0.8586526364911725,normal
2024-01-01 00:00:04.090,-0.062068392954250796,0.3183314491992407,7.413117800572879,0.33642096880521905,1.1507996609770892,0.5944485189858676,normal
2024-01-01 00:00:04.100,-0.48230920707285796,0.03271382562915858,6.756073224459011,0.0242965999690216,-0.41405775065104367,-0.5975028043445298,normal
2024-01-01 00:00:04.110,-0.10840686176940047,0.1203570864690634,5.88072318812879,0.7552764378394519,-0.6753158783382508,-0.021362922718897778,normal
2024-01-01 00:00:04.120,-0.5006657909796226,-0.35323800875820816,4.684726681095778,1.0460857600880002,0.2109284404173875,-0.6214941520856433,normal
2024-01-01 00:00:04.130,0.057475837538693245,-0.08303998891431552,3.8959718919665636,-0.13229489295618602,0.0899853079951421,-0.11922297515672506,normal
2024-01-01 00:00:04.140,0.1682434637721498,0.3142574265951892,2.8672254209620984,0.34570189502459087,-0.23925196149086003,0.006254286629930801,normal
2024-01-01 00:00:04.150,0.01508574566644531,0.16681091150297964,1.9934444480202458,1.1514092320326228,-0.36458777272572424,0.4461291350033249,normal
2024-01-01 00:00:04.160,0.5473918434139492,-0.12838598816778243,0.6898406818667054,-0.21468880392462492,0.15568189488397263,0.7884597325592887,normal
2024-01-01 00:00:04.170,-0.34476780131541523,0.120603484438857,0.3555375436532409,0.21040708842613634,0.2046824028361537,-0.22178502031116895,normal
2024-01-01 00:00:04.180,0.11848598939814053,-0.12136785328108457,1.364188767351796,-0.32551322192970583,-0.589589386123076,-0.4713776270785346,normal
2024-01-01 00:00:04.190,0.0076108143490322714,-0.40172829786901526,2.711769779072149,-0.11092322744612544,-0.20353528687043487,0.338424205398498,normal
2024-01-01 00:00:04.200,-0.3564765269387783,0.016457692335512343,3.599897595308738,-0.6615037938776133,-0.300617256860429,0.21859759024820805,normal
2024-01-01 00:00:04.210,0.1450294718933507,0.16245708393213468,4.779246807218063,0.3009661014395129,-0.04140328311338282,0.05747448670057308,normal
2024-01-01 00:00:04.220,0.24304910735580684,-0.6379037409985214,5.866939352062241,0.2740790873429975,0.23623005264996913,-0.1985043179972463,normal
2024-01-01 00:00:04.230,0.33073361852831823,0.03432900295752056,6.6045996505870255,-1.223963887067543,-0.8729295354908688,-0.21775836259315534,normal
2024-01-01 00:00:04.240,-0.05428563654128081,0.4987899775660081,7.135202923540766,0.28714753516125774,0.4250503884148789,-0.11173985774484203,normal
2024-01-01 00:00:04.250,0.1858213239590318,0.2134586874164234,8.061078621803919,0.05257215424246584,-0.5773012627234578,0.4231884783885602,normal
2024-01-01 00:00:04.260,-0.20122652002097188,-0.09077802867072003,8.696558865899906,-0.1697069695355661,0.02553733618483867,0.5902377131543138,normal
2024-01-01 00:00:04.270,0.44015597116985733,0.31460593313090895,9.04858167163857,0.48117187914034326,-0.5080986048301519,0.09933535420331532,normal
2024-01-01 00:00:04.280,0.5321377079531023,-0.3071201130715697,9.37650842438313,0.08517449902368317,-1.0697566240849745,0.14798009676417503,normal
2024-01-01 00:00:04.290,0.04401384507806847,-0.6024576792984769,9.356361921414592,-0.24828632705848674,-0.46288607029686185,0.3274263340278123,normal
2024-01-01 00:00:04.300,0.06540286432579491,0.5150404432505084,9.828163452512975,0.5009534982262619,0.8877978214342618,-0.6068954925985017,normal
2024-01-01 00:00:04.310,-0.3195759657764507,-0.7232588512963625,9.939654693486643,0.15212074175755438,-0.5620489577452846,-0.2526241989235053,normal
2024-01-01 00:00:04.320,0.005593718574229655,-0.23391998696122332,9.818885785432768,0.9285096063679459,-0.0397223426969149,0.03229358686902461,normal
2024-01-01 00:00:04.330,-0.1110097540474834,-0.009447427718969783,9.265273383597108,-0.70622813878498,0.5030252649182714,-0.5120885913066204,normal
2024-01-01 00:00:04.340,0.06716001396363287,0.02564952922589949,9.256983195815396,-1.5437547243200513,-0.2543468442873935,-0.1609087731926044,normal
2024-01-01 00:00:04.350,-0.42062580909833674,0.10074990344266968,8.814115749066703,0.4601179776790185,-0.1110184230441821,0.12663405533248936,normal
2024-01-01 00:00:04.360,0.5282507225315572,0.8654498380307863,7.769230068878558,-0.9014451742140124,1.3301740281243182,-0.1917588843287842,normal
2024-01-01 00:00:04.370,0.05672389926352824,0.22886356976319328,7.268660777735828,-0.6160274398161956,-0.12962734653335856,0.638019996196189,normal
2024-01-01 00:00:04.380,0.32388278870709414,0.22787299009776077,6.399652790448677,0.2508996114001855,-0.48290545090431675,0.1029365746610752,normal
2024-01-01 00:00:04.390,0.1481314125675145,0.011936013590191528,5.683150143902577,1.0384604920559712,-0.23709813394462187,-0.3836756089971014,normal
2024-01-01 00:00:04.400,-0.08493425988583013,-0.25962443062991386,5.240927451514551,0.11315259409995504,0.662711058746186,0.9460754393075825,normal
2024-01-01 00:00:04.410,0.574800158612737,0.4158551774359436,3.618710807859985,0.038408402724094556,0.6923261923064187,0.6548626474891386,normal
2024-01-01 00:00:04.420,0.3343553694677557,-0.23292087620978374,2.6649949613009647,0.15656518314910056,0.22528826930601745,0.08510922707735563,normal
2024-01-01 00:00:04.430,-0.44153442008803057,0.22001811021991405,1.535555142802917,0.34568308839527384,0.27757960354929495,0.13998832185439858,normal
2024-01-01 00:00:04.440,-0.004923187336012083,0.3655241601624583,0.33751737979894736,-0.38279311586898224,0.2766183140103727,-0.03405730332844801,normal
2024-01-01 00:00:04.450,-0.06750899971804324,-0.5024390434436653,0.7156005261217773,0.9514153915116191,-0.1472502794564804,0.4785224785959628,normal
2024-01-01 00:00:04.460,-0.23760992475966827,-0.2615999351467162,1.6511061724220222,0.04513301538231201,-0.7213987400241807,0.11845020516867943,normal
2024-01-01 00:00:04.470,0.6466541759226194,0.01728741557490399,2.6968875840793016,0.30318691947080795,-0.059325948678823744,-0.014072363909479066,normal
2024-01-01 00:00:04.480,-0.3621148146949939,0.058161130936489336,3.7707425154298986,-0.7173611099083451,1.0872033376877843,-0.5156776842387393,normal
2024-01-01 00:00:04.490,0.45645281127741755,-0.22011463246654242,4.566740370341399,0.5476573806892828,-0.9685989243168651,0.40970406637749307,normal
2024-01-01 00:00:04.500,-0.5107922038404588,-0.1668949179315121,5.941232854322836,-0.009459350055712112,0.40945850851978366,-0.42481027887504436,normal
2024-01-01 00:00:04.510,0.41088821820844984,-0.13482233030642357,6.598051288909836,-0.26535335980048047,-0.49312505618263325,0.24426814747558262,normal
2024-01-01 00:00:04.520,-0.15525633464805935,0.3459311258338111,7.409525277808248,0.3373240411425955,-0.49923309140980643,-0.6967725296183521,normal
2024-01-01 00:00:04.530,-0.667602066797567,0.19829506924096757,7.969623790723155,0.7158680067804816,-0.49192115178347173,-0.219273608918197,normal
2024-01-01 00:00:04.540,0.08410715691307502,-0.0071864584497441505,8.575198569321959,-0.9841298039755239,0.1486130471538262,0.018082856251141387,normal
2024-01-01 00:00:04.550,0.1465850432356729,-0.02769084651823877,9.017427161906848,-0.6944075236288371,-0.3915160109040133,-0.06404809288689406,normal
2024-01-01 00:00:04.560,-0.2682527128214908,0.029410077370549566,9.043625300832817,-0.1510608292081213,-0.08453161961100636,-0.04395957597757823,normal
2024-01-01 00:00:04.570,0.32674472627949186,0.29162633930240184,9.438416824298217,-0.2402864443101466,0.5204283766588561,0.122072682114201,normal
2024-01-01 00:00:04.580,-0.4987270652913445,-0.17150070595779765,9.79141679446731,-0.22738011650730466,0.7245982109389912,0.002609226803279037,normal
2024-01-01 00:00:04.590,0.34082066178910914,-0.058038935389394905,9.521560111561707,-0.7206976346193225,0.6213963683516962,-0.5497649193202943,normal
2024-01-01 00:00:04.600,0.1800574930903948,-0.39631017030898535,9.491382180239082,0.48719220929689766,-0.26878353295928364,0.2519747984652829,normal
2024-01-01 00:00:04.610,0.5397442272684234,-0.07184699438901243,9.502073219197761,0.18468442402877414,-0.7402318837147093,-0.04818233629015352,normal
2024-01-01 00:00:04.620,-0.11372479467113665,-0.25578466956937035,8.982441906965631,-1.126060508795542,0.5521415713428285,0.15097696613179082,normal
2024-01-01 00:00:04.630,0.2682749560455979,-0.33709495576070286,8.530755572320514,-0.25872380035406106,-0.34931326314193867,-0.05148707502302844,normal
2024-01-01 00:00:04.640,-0.16854786921058035,-0.20591066781557554,7.969005710149243,-1.1162636451134116,-0.16936282837718858,-0.13666062024498885,normal
2024-01-01 00:00:04.650,0.2514448508295377,-0.2240503730089532,7.2884396174026485,-0.1958163759252176,0.6345196306246702,-0.21768807039369764,normal
2024-01-01 00:00:04.660,0.08032170113505967,-0.3201485183442041,6.598129366423987,0.5657567953729156,0.015603175250966023,-0.2121290823799488,normal
2024-01-01 00:00:04.670,0.2460289168214043,-0.436241605905936,5.4089609893372055,-0.8748963251558973,0.047918577848279416,-0.11970087391788418,normal
2024-01-01 00:00:04.680,-0.3760320798705946,-0.1657547351738268,4.225680494614995,-0.2793188830691016,-0.06911283244397169,-0.0300676167181541,normal
2024-01-01 00:00:04.690,0.1531621181128781,0.662544039819276,3.5690246115559963,0.4910795872693175,-1.1238708353124645,-0.18297475792880138,normal
2024-01-01 00:00:04.700,0.11731805724889365,0.11015656769918655,2.365177462146361,-0.1225467181842337,-0.38479452864669755,-0.604184039392597,normal
2024-01-01 00:00:04.710,0.4567876284885951,-0.18498373561899475,1.7509338948732838,-0.33135779599032733,0.806611312335361,-0.0064152531344388196,normal
2024-01-01 00:00:04.720,-0.09370883421209372,0.46982801070988733,0.1893827303010337,-0.01202561745820531,-0.8504121235592104,0.5367490751059896,normal
2024-01-01 00:00:04.730,-0.04677092110949115,-0.3045571974994597,0.8421301551758913,-0.08299190817839083,0.5902983299743092,0.2598952390568561,normal
2024-01-01 00:00:04.740,0.19986314453125545,0.03671209019486917,2.1966998479238433,0.29551390199941807,0.4143340388672386,0.24288419450340717,normal
2024-01-01 00:00:04.750,0.16473678140228232,-0.36747989321110114,2.896163185988468,-0.20074948850465602,-0.3163189588841767,-0.22847361086742496,normal
2024-01-01 00:00:04.760,-0.745578266278462,-0.05102170621846513,4.30226282246619,0.8727269993914494,-0.14052256039261424,-0.01167258390243,normal
2024-01-01 00:00:04.770,-0.07705642168520377,-0.14877545488034513,5.36688979696541,-0.6030912884777729,-0.10415724692948172,0.32862234246804845,normal
2024-01-01 00:00:04.780,0.2631727562978919,-0.07522587231622865,5.875333850564177,0.7662951346637695,-1.278029959161157,-0.5620314407420185,normal
2024-01-01 00:00:04.790,-0.09936273312752211,-0.04560277994296385,6.613229572558137,0.31257657847746234,0.006710609545896481,0.1729453714217706,normal
2024-01-01 00:00:04.800,-0.5475216782269365,0.46961029404391896,7.491136501064288,-0.2913807871892955,-1.0019561016562908,0.11031132331370129,normal
2024-01-01 00:00:04.810,-0.09803364006309603,-0.3090066122454577,7.959443474638765,-0.10026620953029071,-0.07419570539430419,-0.4005461844447134,normal
2024-01-01 00:00:04.820,-0.002766679537452492,-0.1671500196273332,8.736297400321005,-0.11695687969968489,0.6972631982115584,0.2726878159248145,normal
2024-01-01 00:00:04.830,-0.28384076292023097,0.024048780924457884,9.069802091816992,-0.7413824874551296,0.45298642048343435,0.1747216966225537,normal
2024-01-01 00:00:04.840,0.02786566363710111,0.12798139264289585,9.810106305281899,0.24107006733782507,-1.466777872857367,0.5921794899726542,normal
2024-01-01 00:00:04.850,-0.32515365500112225,0.13851184360295068,9.852838748601473,-0.18605848450227963,-0.5134720181590677,-0.06499339342878523,normal
2024-01-01 00:00:04.860,-0.05580867744462567,-0.26293721024399674,9.693592711860221,-0.13340901777087574,-0.79093215848734,0.11312055929238471,normal
2024-01-01 00:00:04.870,0.025922885393524452,-0.07380520459464067,9.696128714156531,0.6624607299449268,-0.6910808122363449,0.16171612541312677,normal
2024-01-01 00:00:04.880,0.5313024645333544,-0.05274955556810624,9.591167422944217,-0.8856907917167469,0.29517613669651716,-0.13995603007156554,normal
2024-01-01 00:00:04.890,0.10637922123058415,0.48717276232840245,9.44031212911496,-1.6591501881111934,0.3065452990314172,0.813820540362633,normal
2024-01-01 00:00:04.900,0.3805657695741291,0.039845990267407906,9.100986305864202,0.3367684895201518,-0.5444744338123084,0.04877532984486404,normal
2024-01-01 00:00:04.910,0.06596986103913424,-0.10791893089414442,8.075412462421474,-0.1512034173045644,-0.08201458142671936,-0.2056763923255213,normal
2024-01-01 00:00:04.920,-0.33838455751744095,-0.6018007987126517,7.676265327823782,0.41273927577463476,0.00815951090999561,0.18017414320393807,normal
2024-01-01 00:00:04.930,-0.34436470718891177,-0.2077385587803211,6.847353226858795,-1.2389333685173667,0.18243422081906377,0.13073499172928957,normal
2024-01-01 00:00:04.940,0.23618892891316784,0.21435480243531044,6.247370601775122,0.0020496600207306395,0.5702007451790109,-0.5175306315885971,normal
2024-01-01 00:00:04.950,-0.4775820248591766,0.2149840430975525,5.0121497164115825,0.5581552896792235,-1.3900377197315348,-0.1240093422191012,normal
2024-01-01 00:00:04.960,-0.47604480715399017,-0.22228094768870063,4.473240210908805,-0.5650126069271062,0.34894179443822126,-0.10448748704785313,normal
2024-01-01 00:00:04.970,0.2693682029243618,0.2406442832725852,3.265488677731718,-0.3745292691425433,0.061382293598603546,-0.11662789449992036,normal
2024-01-01 00:00:04.980,-0.24398722488368516,-0.2561750363968984,2.1956711282471484,-0.4246796437526474,-0.16769896946037216,0.6295688563593477,normal
2024-01-01 00:00:04.990,-0.34408643541095324,-0.16257373847639767,1.0993183261618882,-1.4400286824232038,0.25874643437270206,-0.022479845026975434,normal
2024-01-01 00:00:05.000,0.49117198934779,0.3192054467719826,-0.28951017675657903,-0.14388418283044382,1.0749549106991856,-0.5249361931841491,normal
2024-01-01 00:00:05.010,-0.2616296864082116,-0.017006398728222447,1.2809653185693317,-0.4175789084607678,0.8077344744964013,1.158622412106872,normal
2024-01-01 00:00:05.020,0.18061977527990125,-0.3608666449126315,2.3427456627328946,-0.3495185594205141,0.9634323311077893,0.6637307472595451,normal
2024-01-01 00:00:05.030,-0.011867707716070913,-0.03949785906764581,2.9838008511139966,0.0571644496922123,-0.9698186182141327,-0.0550950339990015,normal
2024-01-01 00:00:05.040,0.03795290971316697,-0.6160703619346907,4.048639761921743,0.6481002389826032,-0.997757471078277,-0.039168689370166355,normal
2024-01-01 00:00:05.050,0.011211561098511355,0.04074316189531781,5.173818362247766,-0.6259864752461066,-0.5237441356048294,0.3816070488443609,normal
2024-01-01 00:00:05.060,0.2987171101702663,-0.7102904944026067,6.239217157307052,0.8847944041425023,-1.3806907817364436,-0.296450665926214,normal
2024-01-01 00:00:05.070,0.4398995670216711,-0.2898614189796258,6.788930381505544,-0.051533222124712806,0.12071877085941636,0.3899952416309815,normal
2024-01-01 00:00:05.080,-0.28054489455692855,0.11407283492110276,7.880842986296405,-0.19453870509167356,0.06008045773021145,0.028083102261826715,normal
2024-01-01 00:00:05.090,0.4531736890653981,0.009855425044811756,8.432473366486432,0.15760866677916208,0.6448504829676999,-0.01393026969883814,normal
2024-01-01 00:00:05.100,-0.06681927625168757,0.22058781320456713,8.72536730670182,-0.21374632201337532,0.7105357191659296,-0.06036070656823109,normal
2024-01-01 00:00:05.110,-0.0533693594836637,-0.6859681289069053,9.23517484570718,0.1004277922578025,-0.6802516993194991,0.3368560423059413,normal
2024-01-01 00:00:05.120,0.20155767411761188,0.10482394916496524,9.564931214591299,-0.09642772451332379,-0.21794420428209837,-0.04519563268052374,normal
2024-01-01 00:00:05.130,-0.16464890505114183,-0.40386585085828836,9.608077340832295,-0.114500193852061,-0.4169352428141886,-0.06974576882771395,normal
2024-01-01 00:00:05.140,-0.27828724634646906,0.0005163479051129956,9.78231282340775,-0.028159772508826078,0.3393650579776028,0.10765079490843356,normal
2024-01-01 00:00:05.150,0.4488360487297985,0.09709472159390854,10.087634670585471,-0.019023139095847956,0.7518924450376798,0.11799865916388139,normal
2024-01-01 00:00:05.160,-0.17494501452636366,0.05571654766627417,9.5711947349651,-1.1953038667261686,-0.45390524139089133,0.361408627360974,normal
2024-01-01 00:00:05.170,-0.6346922072766741,0.6706675818427551,9.122909006522242,-0.17759701234645786,-0.5053952572015785,-0.4566978502624459,normal
2024-01-01 00:00:05.180,-0.9842671272370751,0.11826151079554471,8.652404580722358,0.33783856058294476,0.11737471219157838,-0.4256778281601563,normal
2024-01-01 00:00:05.190,0.09262395311264657,0.3590794717281552,7.9452708977225,-0.051689685672076505,0.07376252378415142,0.11054721676533369,normal
2024-01-01 00:00:05.200,-0.047969721675309974,0.08036161022178319,7.866447425460663,-0.11580527170367996,-0.032193303503311954,-0.15724183384069615,normal
2024-01-01 00:00:05.210,0.5122138194892691,0.533683852467241,6.75861807887999,0.2252756644493825,-0.10817951163201919,-0.3533440278069236,normal
2024-01-01 00:00:05.220,-0.3515648810370094,-0.32233890309378715,5.922281257677546,-0.33277982704093245,-0.09743021316846714,-0.7110650887223541,normal
2024-01-01 00:00:05.230,-0.3651006217076531,-0.057191822224396796,5.307937425794709,0.8576743671103134,-1.1422414157499576,-0.06059799726719505,normal
2024-01-01 00:00:05.240,0.00731251569673235,-0.3910907489385104,4.080190928581704,1.359281884627685,0.4658626009168699,-0.1739262386075607,normal
2024-01-01 00:00:05.250,0.39529811834263734,0.33657826248959694,3.105997343254962,-0.14010156842370342,0.16531272260044058,0.012319690926028576,normal
2024-01-01 00:00:05.260,0.41791186051833007,-0.4050414764573621,2.039948996084392,-0.09878778979074405,-0.20767502356521333,0.2412440266852395,normal
2024-01-01 00:00:05.270,0.007974361620090504,-0.346898227340714,0.7051213215673058,0.016660142417294896,0.25006439391659646,-0.0883245521099886,normal
2024-01-01 00:00:05.280,-0.1940280494318528,-0.12883739942081535,0.013898419839992321,-0.36434473007326273,-0.6438615092967976,0.40365116449524174,normal
2024-01-01 00:00:05.290,0.0384257408269874,-0.18501703484798748,0.9524083308423239,0.8979268293974669,0.21678639029029825,-0.29064508456648075,normal
2024-01-01 00:00:05.300,0.4523065884005937,0.4186423855690469,2.233884969477749,0.5995717958309144,-0.2509532295199354,-0.22099568604433492,normal
2024-01-01 00:00:05.310,-0.024801445571732184,0.41813310654660046,3.4436818049211895,0.16918453070904013,0.2925947430040667,0.43997948194608083,normal
2024-01-01 00:00:05.320,-0.1341296673476181,0.25526023990704333,4.700015866287467,-0.06772675839624076,0.5827459406707889,-0.13957913323511065,normal
2024-01-01 00:00:05.330,0.1327056569906688,0.05295518452861297,5.463751207883598,-0.004772765384562472,-0.137770417037185,-0.011238501208854024,normal
2024-01-01 00:00:05.340,0.05960556235169005,0.2575720903258367,6.23140213353594,1.893859562400012,0.13778829038226156,0.035796843868254345,normal
2024-01-01 00:00:05.350,0.033641619216223266,0.20568490334693626,7.379072135061833,-0.17541917797297474,-1.1249925466274864,0.1341189721993225,normal
2024-01-01 00:00:05.360,0.6200000170096307,0.27770552047145836,8.094676528384872,1.2328049470128364,1.217308747802515,-0.14492794383284338,normal
2024-01-01 00:00:05.370,0.200442005941168,0.24753298959054876,8.691469927286695,1.000332244850742,0.24135338113451144,-0.033980266296246626,normal
2024-01-01 00:00:05.380,0.0363774751203506,-0.22754939200850305,8.94122542495233,-0.7179132129876789,-0.07037491152212937,-0.17989825898965467,normal
2024-01-01 00:00:05.390,-0.10212111295805486,-0.5730143524854097,9.146557704921381,0.6995077177938489,-0.34933268798584277,-0.12431236521708329,normal
2024-01-01 00:00:05.400,-0.07800591408697699,-0.16076139172088091,9.4560510594105,-0.4879407057696815,0.8768816028520343,-0.31781226363804826,normal
2024-01-01 00:00:05.410,0.15381969418965333,-0.30230735364174993,9.899178717682444,0.22558930260877658,-0.7703215695852674,-0.09707765255555265,normal
2024-01-01 00:00:05.420,0.21886832217452468,-0.005095194495656165,10.114541997417115,-0.3278319359876929,0.17302413110752404,-0.2918447579477987,normal
2024-01-01 00:00:05.430,-0.18495057006256216,0.14914883942084456,9.362072662450604,-1.0736276618896845,0.08124127952179235,-0.05001666054792751,normal
2024-01-01 00:00:05.440,-0.1528472698993126,0.24666029887082241,9.435428441636907,-0.7266551124430464,0.3969191532029084,0.03825922115857791,normal
2024-01-01 00:00:05.450,-0.07736096905955347,0.2661766222751215,8.871150423663561,-0.8104113327204214,-1.0066605079353665,-0.39948611772165793,normal
2024-01-01 00:00:05.460,-0.27565146412467406,-0.023289004672729995,8.661210515191915,0.5323815964182895,-0.021973542456784498,0.15396715759058238,normal
2024-01-01 00:00:05.470,0.3299650622737663,0.24709755055197738,8.13564569037007,-0.5982389356088653,-0.8221140165303504,0.40751392829605515,normal
2024-01-01 00:00:05.480,-0.2641057631193627,0.3031668271936511,7.271173644250989,1.017270973312218,-1.1751363896454232,0.03759093968486146,normal
2024-01-01 00:00:05.490,0.04956554511496672,0.020767279711198874,7.000501510420204,-0.7094064876209282,0.26827774448501424,0.03443226125821768,normal
2024-01-01 00:00:05.500,0.29767159606658183,-0.2429797569277117,5.75458054610824,0.082344228798227,0.4868166065539575,-0.2566868876697261,normal
2024-01-01 00:00:05.510,-0.2890904231011244,0.4894531091476491,4.925697722738265,-0.14471162113768546,-0.5526644836648738,-0.12086236170329549,normal
2024-01-01 00:00:05.520,-0.25006018324405277,-0.06905236830572405,3.9253941061685045,0.803224922613215,0.49681878424617665,-0.16240291869188675,normal
2024-01-01 00:00:05.530,-0.03787345404655335,0.2384492874896566,2.8181960189977113,0.859849465675766,-0.13553967296009634,0.6050220805665002,normal
2024-01-01 00:00:05.540,0.15439956722003645,0.5860457103287727,1.448168077079228,1.2840467090463321,-0.3666748105452743,-0.26528102522514857,normal
2024-01-01 00:00:05.550,0.05901947625039081,0.21854515203585692,0.6817306962895597,0.8757296497246886,-0.19570717009068236,0.18298654104079792,normal
2024-01-01 00:00:05.560,0.019744690294419612,-0.5483291345694427,0.508992883143754,0.14865672950708425,-0.4683493510387189,-0.20721308814637326,normal
2024-01-01 00:00:05.570,0.37730156400688036,-0.15725561599686186,1.7193014126633834,-0.8621848023648941,0.08476768773191876,0.06975840750406553,normal
2024-01-01 00:00:05.580,-0.16566997520965232,-0.12900756394435028,2.5408180490229153,0.20140561895728046,-0.7645763001342866,0.14757094512258787,normal
2024-01-01 00:00:05.590,-0.1972459001101082,0.2847973081427828,3.8211588884073238,-0.5154394379111588,-0.2120376712100551,-0.08483088192464106,normal
2024-01-01 00:00:05.600,0.1987676310433774,-0.3569881790148973,4.587566954459541,-0.14200311079352637,-1.1538016407058622,-0.26238270876818937,normal
2024-01-01 00:00:05.610,0.03993268117479664,-0.30505184456788925,5.625292025156863,-0.09563904828657555,0.9022275849191504,0.1403965153030025,normal
2024-01-01 00:00:05.620,0.28705127504129124,-0.33208563135704605,6.6211365261966275,-1.1685984225656647,-0.6817533526785049,-0.17726090689809199,normal
2024-01-01 00:00:05.630,0.32754865062691413,-0.6201932552306145,7.180461297454337,-0.5874062578578384,0.8444457118971158,-0.6522138037797734,normal
2024-01-01 00:00:05.640,-0.32156751172806125,0.029490894288075307,8.317170124861185,0.22670833010253458,-0.0769124348718958,0.6276612717962927,normal
2024-01-01 00:00:05.650,-0.6174398283034359,0.577875742984165,8.3366574088448,0.2275499562752744,1.190451999399816,-0.013440743891853759,normal
2024-01-01 00:00:05.660,0.17041682428980126,-0.4405294636459103,9.154165019857524,0.02833428942305516,0.06831192194943639,0.20262840932256426,normal
2024-01-01 00:00:05.670,-0.00800049443144174,-0.1935327339854763,9.546479515056225,-0.3590048258635178,0.1711340366177629,-0.37187656132304403,normal
2024-01-01 00:00:05.680,0.08899368621560481,-0.3987159834418548,9.752849500359762,0.5696071061495177,0.5360396241258663,0.011309236443266212,normal
2024-01-01 00:00:05.690,-0.26387844360183593,-0.29127165125909826,9.81933736369064,0.15776463335247323,0.4198508781161642,0.6040306458721239,normal
2024-01-01 00:00:05.700,0.24337360393931273,-0.30377476084714616,9.860519376823452,0.3693002450941679,0.5207661457547084,0.37613003201927314,normal
2024-01-01 00:00:05.710,-0.06276087904619577,0.3545753241657877,9.668395007808599,0.21865296240992022,0.43698207280553697,0.08885081923846833,normal
2024-01-01 00:00:05.720,0.16930282138329497,0.4891601584035039,9.497867313571124,0.29337010444741884,0.2482625215844087,-0.2976578600177141,normal
2024-01-01 00:00:05.730,0.27676686227850245,0.08022120180872375,8.844987841457376,-0.39158095296290807,0.7379340519126528,-0.013864529057372291,normal
2024-01-01 00:00:05.740,0.03816449940524308,-0.5193464459215713,8.426144090360628,1.038734130222134,0.8803000494701094,0.0398183314246392,normal
2024-01-01 00:00:05.750,-0.02127315734520345,0.42701641640753835,8.028003635225831,-0.6637665831054584,0.09427501708153976,-0.09680990342276495,normal
2024-01-01 00:00:05.760,-0.20046991499149713,-0.30291732467481775,7.255332697208678,1.1448940354156645,-0.08096524663584985,-0.035231522949208734,normal
2024-01-01 00:00:05.770,0.8075471231845396,0.174574843299087,6.1123318226182946,-0.8448962945102004,-0.4110055060349502,0.33158159279097843,normal
2024-01-01 00:00:05.780,-0.40165458375368207,0.045781769376700567,5.890186536891864,0.6278720622280678,0.4237134571091552,0.021879830999234115,normal
2024-01-01 00:00:05.790,0.21582491124866632,0.18570084755950575,4.8304583886058134,0.8734418447103659,-1.182490562002214,-0.10265666608018109,normal
2024-01-01 00:00:05.800,-0.44279781678132396,0.10806935903967069,3.534885809315734,-0.3996836122616009,0.0720320178504574,-0.026445151952111782,normal
2024-01-01 00:00:05.810,-0.24016247422097295,0.17846310982033098,2.48163668173703,-1.3895647842034178,0.6835195790168209,0.0978792781721177,normal
2024-01-01 00:00:05.820,0.42459419873293053,0.3887202746227399,1.402381424511218,0.39308843252739445,1.3293886961597936,0.01036487423473733,normal
2024-01-01 00:00:05.830,-0.2128906461485447,-0.2729041312815611,0.3241693309258484,0.05980557106104272,-0.02485028551520951,-0.46719880852045126,normal
2024-01-01 00:00:05.840,0.3213502509368355,-0.14125691316606778,0.7703482792775633,-1.0267184512996081,-0.6568717167837899,-0.2970692041447078,normal
2024-01-01 00:00:05.850,-0.10887845213774802,-0.38399756658057455,1.8038472248712716,0.28588374432408453,0.12163064599321839,0.3736065399585473,normal
2024-01-01 00:00:05.860,0.26691740640834666,-0.06868229352979346,2.852268395078151,-0.4525451959857001,1.397710682526831,0.09852064985407817,normal
2024-01-01 00:00:05.870,-0.41718448638208416,-0.2730724183926275,3.9533821389042014,0.7405736911191372,1.3824878807084429,-0.5237357456710222,normal
2024-01-01 00:00:05.880,-0.3342258667292704,0.28013994587643926,4.795052365485451,0.200220520337026,-0.20579289382934704,-0.10688533808469895,normal
2024-01-01 00:00:05.890,0.4385314082375691,0.2270617144500408,5.666934612391958,0.6958405289935691,-0.2587414166372384,0.15284494179079558,normal
2024-01-01 00:00:05.900,0.1025623911097957,-0.5007769410295168,6.631048772506786,-0.4009572106809993,-0.2240663840653691,0.31090782239163844,normal
2024-01-01 00:00:05.910,-0.30622780608969014,0.40864814134963834,7.672682094090881,0.020714104479936976,-0.3583865556988749,0.19214396064647093,normal
2024-01-01 00:00:05.920,-0.1418813388292637,0.0408982318109785,8.125482693644031,0.19505641717012528,0.3132684509741197,-0.12426316915580095,normal
2024-01-01 00:00:05.930,-0.8284875760985565,-0.35645440914212484,8.843321575545476,-0.4045098471300913,0.4249829875780265,0.12103706373715138,normal
2024-01-01 00:00:05.940,-0.095553467697894,0.12230553379789216,9.031276431006084,0.2870353998028279,1.2523427532430869,-0.010546704677800695,normal
2024-01-01 00:00:05.950,-0.3966959692319156,-0.2618507377588584,9.43227211149472,0.32815473601683703,-0.34531330092440127,0.4277125514830829,normal
2024-01-01 00:00:05.960,-0.29040007007007,-0.13532789208824528,9.917183428564073,-0.5054096952284529,-0.12799471029193513,-0.002543542090766756,normal
2024-01-01 00:00:05.970,0.44670324606303446,-0.31285600014539783,9.994054401962403,-0.5293673679150828,0.5651098741244109,0.34097282581164196,normal
2024-01-01 00:00:05.980,-0.16553966012286656,0.33003055179306245,9.522126275428823,-0.6576134923756177,-0.33495907125108093,0.0276530040940988,normal
2024-01-01 00:00:05.990,-0.189751718668802,-0.12265643597610104,9.720539167324374,0.653455131635212,0.13455750946522665,-0.5279556536403829,normal
2024-01-01 00:00:06.000,-0.33556250661730747,-0.09152878530909013,9.13533767345951,0.40093623339281836,0.2534347636659826,-0.7507956833449921,normal
2024-01-01 00:00:06.010,0.1959929452561666,-0.10407504465590708,8.941136934724137,1.1358087532294214,-0.9417319382914169,0.8503587033330079,normal
2024-01-01 00:00:06.020,0.16009928451754404,-0.04305685593678513,8.41214545229012,1.1780794355177193,0.20506112879087546,0.0834581098709059,normal
2024-01-01 00:00:06.030,-0.25657876384030265,0.15689404186620706,7.750251658474444,0.6306953822318517,1.4125408275691285,0.6162228806280338,normal
2024-01-01 00:00:06.040,-0.5012411684995598,-0.1975359113370268,7.176501078489135,0.5027665420081397,1.0024435629545558,-0.08247761112725974,normal
2024-01-01 00:00:06.050,-0.06934920982087439,-0.15788413677698823,6.267300752128004,0.43763056014151797,-0.04441688696427861,-0.30492745618137584,normal
2024-01-01 00:00:06.060,0.03145890576855204,0.21295272322395356,5.463022663616831,-0.03929820575336458,0.16530833377394638,0.14462122350529943,normal
2024-01-01 00:00:06.070,-0.5999307196988963,0.2186380718413918,4.429404688580163,0.6610395308001855,0.4672686835961821,-0.18116356308633305,normal
2024-01-01 00:00:06.080,0.3347354197219526,-0.35074398387752087,3.4060171592481674,-0.10633155935063146,0.5209693701877404,0.38993706276650053,normal
2024-01-01 00:00:06.090,-0.28041353578669204,-0.0034841935991571558,2.435878566146753,0.053132611652833284,-0.2888063435801085,-0.18029495260636488,normal
2024-01-01 00:00:06.100,0.02114595462730641,-0.05848750201985378,1.30939076274498,-0.4510401372731669,0.0655189668632102,-0.042644100063123296,normal
2024-01-01 00:00:06.110,-0.24198926582221023,0.04096249641247358,-0.10585112444155606,-0.9640776901237613,-0.49505499498586647,0.043842137313211765,normal
2024-01-01 00:00:06.120,-0.23757192182491726,-0.07841438214373807,0.9467844351196999,-1.0341830118355608,0.8363599907662003,-0.38500972025100655,normal
2024-01-01 00:00:06.130,0.2682371623532459,-0.08034892503058208,2.0381149339113156,-0.41520797237625046,-0.1320616349811261,-0.14662441723025108,normal
2024-01-01 00:00:06.140,0.01888489374155016,-0.12927211767048905,3.3260674069156884,0.3496286286826068,0.236326586639847,-0.29209235618858526,normal
2024-01-01 00:00:06.150,-0.4628166103578558,-0.179550457162847,4.237834463537146,0.41630960599007105,0.11391175652906663,-0.32502357686540106,normal
2024-01-01 00:00:06.160,0.092942296626997,0.07242817694192351,5.013378035714109,0.6050015721082291,-0.161522742908058,0.7386873949048022,normal
2024-01-01 00:00:06.170,0.23701207816665887,-0.09532866512729209,6.1860961697299635,0.24685583879601367,0.14070186950758254,-0.13700920675389947,normal
2024-01-01 00:00:06.180,-0.06081162179829016,-0.3905723139909439,6.862577223643987,-0.24079428874170083,-0.4145682142434307,0.051269923552762456,normal
2024-01-01 00:00:06.190,0.31203112133200817,-0.21335129997219893,7.561248532640016,-1.3144960174573042,-0.5799541776308895,0.6312731117813958,normal
2024-01-01 00:00:06.200,-0.2865578975172971,0.2975088325875862,8.289686342983352,0.8043165607688767,-1.0719062613838766,-0.28234419172623393,normal
2024-01-01 00:00:06.210,0.2739616563802154,0.4476390645064957,9.134603358956134,1.5464407080737803,0.1610809696184047,-0.6706155503276497,normal
2024-01-01 00:00:06.220,0.05562682682365796,-0.664309512758386,9.209391454790012,0.2207068689835842,0.29419015714034435,0.1271481651888478,normal
2024-01-01 00:00:06.230,0.03992563117243363,-0.16906040387203464,9.720489387560825,0.35339211102838025,0.8782287908351769,-0.1838152663336208,normal
2024-01-01 00:00:06.240,0.40016760192368034,-0.27225395514649103,9.835069965183934,-0.4923802687215731,0.9635721143569604,0.10538300159495884,normal
2024-01-01 00:00:06.250,0.19910797705102803,-0.12222638578700261,9.917573445093879,1.1324813985304676,1.1478896816145856,0.7176737905928385,normal
2024-01-01 00:00:06.260,-0.10383584278406108,-0.21188885145757538,9.751292962906975,0.7190470325853353,0.6272712681716335,0.15994110733009265,normal
2024-01-01 00:00:06.270,0.1417803133527075,0.45074743216798285,9.465843708982973,-0.23168388246473615,-0.6503557683833869,-0.17816442139555264,normal
2024-01-01 00:00:06.280,-0.21142074696987553,-0.42069108561067337,9.074068660282713,0.7899333082300778,-0.9355495608459705,-0.3538668759723062,normal
2024-01-01 00:00:06.290,0.14227819594982918,-0.3841056936192784,8.860770692562232,0.07323818087051048,-0.1544366318209807,0.23020704022060126,normal
2024-01-01 00:00:06.300,0.3837393154860135,-0.16699516930181604,8.2318598924513,0.03711153672377705,-0.10112150778726163,-0.29419589997346324,normal
2024-01-01 00:00:06.310,0.3538637893949414,0.19833072643228225,7.248097238138319,0.04708388579110052,-0.6257331017266755,0.18937741191794882,normal
2024-01-01 00:00:06.320,-0.2200241629332,0.12448429586455467,7.219674142357718,0.3604945155868184,-0.1254956529669986,0.48266514563031865,normal
2024-01-01 00:00:06.330,-0.08050070721528299,0.20288008382284742,6.103584124487394,-0.09448776811882513,1.2251274833141024,0.21855128553514863,normal
2024-01-01 00:00:06.340,0.18280256433872707,0.1256306918106144,5.09078296869218,0.7060907836013667,-0.39099074060502464,-0.5400466749577988,normal
2024-01-01 00:00:06.350,0.16604261653133806,0.11148455297730125,4.1630554011225405,-0.21987373400018118,-0.01807366451676915,-0.13717804156733127,normal
2024-01-01 00:00:06.360,-0.2330371539766741,-0.2061937069782637,3.0920950525473074,0.21773923028170847,1.0310453692175439,0.6739316769183656,normal
2024-01-01 00:00:06.370,0.054939612417438215,0.22727780098328498,2.1383660486796567,0.23759649888052167,-0.584637671072462,0.668298439361057,normal
2024-01-01 00:00:06.380,0.10641264525225451,0.07075970011340084,1.0108374023508642,-0.1859872392761808,0.7172649116671889,-0.023110540600041495,normal
2024-01-01 00:00:06.390,0.44654843375815434,-0.6659558920583901,0.20907077409491315,0.6488429835274012,0.9745431686671255,-0.37931888974075034,normal
2024-01-01 00:00:06.400,0.06077582720539803,0.07337552333958049,1.018892657082699,-0.5567688475285505,-1.479401781077566,-0.8757418976728348,normal
2024-01-01 00:00:06.410,-0.03375265603124141,0.2694432490463019,2.4453881910506965,0.5347802124285798,0.4548518825581489,0.3016830751413516,normal
2024-01-01 00:00:06.420,-0.33334104084698407,0.31011332211843506,3.333366553090606,-0.5755172595050543,0.3062319282471368,-0.101979714180064,normal
2024-01-01 00:00:06.430,-0.4209325257758697,-0.43357509405984823,4.312433196414988,-0.17592766061540413,0.13566788574204375,-0.5592316429790822,normal
2024-01-01 00:00:06.440,0.26571102014086356,0.023637563974476323,5.182181529942552,0.6585549053541351,-0.8397451528897533,0.5851326639852767,normal
2024-01-01 00:00:06.450,0.010549102129610547,0.6391006989540927,6.1176810186630215,-0.48762201192563476,-0.04030613933941426,0.5967512221824277,normal
2024-01-01 00:00:06.460,-0.1441873705878381,-0.2718010960015575,6.8787770241572606,-0.6066135963856399,0.03134430085164886,-0.11078038253646706,normal
2024-01-01 00:00:06.470,0.2810752317048262,0.5897991190750002,7.584509504454775,0.4714015813389007,-0.6722957016924717,0.40343727246165106,normal
2024-01-01 00:00:06.480,0.1344260728525864,-0.2497211315634027,8.318571942943606,0.6506479283763453,0.11035751382461713,-0.4551444763354554,normal
2024-01-01 00:00:06.490,-0.04203949565638316,0.1262535705964745,8.918587524807641,-0.18566414945274437,0.21035116391600092,0.762128541424582,normal
2024-01-01 00:00:06.500,0.20508844504109755,-0.17124695713844312,9.521866078053932,0.45452309568050653,0.5076902056196757,-0.23393537723172872,normal
2024-01-01 00:00:06.510,-0.13217463887252134,0.019363404872490976,9.452607074435209,0.1863742269014482,-0.09125897262181591,0.14930824913587207,normal
2024-01-01 00:00:06.520,0.20540148132256153,0.1115221913957385,9.960227166792754,-0.7561580150084161,0.22139571637945046,-0.10031425334724188,normal
2024-01-01 00:00:06.530,0.10517067375276969,-0.6456953874139704,9.919795658283377,-0.08714645655756403,0.46187093181480493,0.10262785530109282,normal
2024-01-01 00:00:06.540,-0.13680177563954787,0.31391307802276,9.767765258662156,-0.051818624929026336,0.5498227831629249,-0.04173414996569938,normal
2024-01-01 00:00:06.550,-0.12542678749232317,0.2090813434474694,9.583958746946502,1.44627037670041,0.04431353407581411,0.2695884856753575,normal
2024-01-01 00:00:06.560,-0.22811076294364194,0.5113503033100048,9.126531349721741,-0.3395730338121802,0.32331318582032,-0.288881118632612,normal
2024-01-01 00:00:06.570,0.2595649760027891,0.41785525852125105,8.776102281461142,0.35311497642003564,-0.7048507065574959,0.1644453855794634,normal
2024-01-01 00:00:06.580,-0.047862149332909186,0.15195198288545864,8.04266736088385,-0.30828662263062984,-0.07006913353373828,0.3863494136748007,normal
2024-01-01 00:00:06.590,-0.31299460455288025,-0.01918076987070279,7.399658754608006,0.7989245703800208,-0.052856519627600684,0.402924272819732,normal
2024-01-01 00:00:06.600,0.20700076994977198,-0.3170915500644378,6.470050456433364,0.6768114513544404,0.5109092718889688,-0.5255688261630785,normal
2024-01-01 00:00:06.610,0.1361903392852647,0.4233056635200097,5.546651517132975,0.8194077302772388,0.3303796359841109,-0.3460211517954269,normal
2024-01-01 00:00:06.620,-0.004346623247676761,-0.08988940273047778,4.976888560839982,0.4108606491935244,0.4403868277446504,-0.2529946559664577,normal
2024-01-01 00:00:06.630,0.05585112448468214,0.0549749559790857,4.129846803096812,-0.36700323977834365,-0.7385425146691603,1.0235860550208793,normal
2024-01-01 00:00:06.640,-0.11813412531754724,-0.05892635029845358,2.538440576261679,-0.17235031080239993,0.014871201227498783,0.8118744963434674,normal
2024-01-01 00:00:06.650,-0.18442737558061548,-0.22774328771378421,2.0127958561948454,-0.5946431756009863,-0.33663094701259677,0.10735504698712603,normal
2024-01-01 00:00:06.660,0.24744648825900947,0.010488574063664428,1.0574699523205326,0.3134914855613246,-0.15380631649140786,-0.07953941864449024,normal
2024-01-01 00:00:06.670,-0.34527363746918843,-0.02410405965854443,0.43376764680677155,-1.4104560463216218,1.1179414136577381,0.11015950085952064,normal
2024-01-01 00:00:06.680,-0.468316548095475,0.3514307991556129,0.9911849060461126,-0.13192658155395268,-0.3410518668710435,-0.3009694037067347,normal
2024-01-01 00:00:06.690,-0.4086063183471383,-0.2505559923426911,2.4846659341226993,-0.26520709228155914,-0.662108368303435,0.11247576387231163,normal
2024-01-01 00:00:06.700,0.2466348560667451,-0.053368372805160706,3.5074334598523857,0.1453762185727358,-0.0895493420569462,-0.4922880204581227,normal
2024-01-01 00:00:06.710,-0.33144709673890665,-0.3909201616501487,4.676088613909662,-0.44838334203946784,-1.1182190428318608,0.750995408423783,normal
2024-01-01 00:00:06.720,-0.09553580357502847,0.028205893137495452,5.601021395237755,0.059919444511647005,0.49794373156029775,-0.18954712211371166,normal
2024-01-01 00:00:06.730,-0.2293099326882975,0.23182677590573397,6.5524072390608845,-0.3694936275067349,-0.9792965327298517,-0.24729643676414986,normal
2024-01-01 00:00:06.740,-0.3184540476610787,0.23879465781396916,7.1939025537477645,0.14553834894381734,-0.262535677273307,0.6101583942851613,normal
2024-01-01 00:00:06.750,-0.06538260937850077,0.16591509500943705,8.079201173627501,0.06957699665182589,-0.4442182996219392,0.736596347014147,normal
2024-01-01 00:00:06.760,-0.05228852804611365,0.11071369533372326,8.415216921224019,0.6123178092609888,0.32993529465244287,0.3485222287243004,normal
2024-01-01 00:00:06.770,0.5678787726204636,-0.33270814787203,9.12643320818506,-0.2642003582657758,-0.552682429178375,-0.05749122059772976,normal
2024-01-01 00:00:06.780,-0.11592095093276189,0.3504589911797359,9.428694275293006,-0.9282841089296938,-0.6823452796454587,0.26355623751965573,normal
2024-01-01 00:00:06.790,0.06254046056709439,-0.1921737298222392,9.658718875284853,-1.2660141392830755,-0.3757114033088823,0.40451626670531304,normal
2024-01-01 00:00:06.800,0.5883879211696244,0.2707408813935918,9.67199209130475,0.6125096727511254,-0.32405754999499603,-0.3757413363348289,normal
2024-01-01 00:00:06.810,0.40998556115465024,-0.30505108430278133,9.994381461165963,-0.3121424198288361,-0.37577165556842357,0.3790288192312128,normal
2024-01-01 00:00:06.820,0.17403227149469155,0.3393068793518528,9.813444145279977,-0.03133092591466477,0.24519216453434106,-0.19108777070267816,normal
2024-01-01 00:00:06.830,0.259102118577263,-0.09442017190030606,9.528679955242193,0.11342628688331852,0.17548717772209452,-0.17149511982063348,normal
2024-01-01 00:00:06.840,-0.01843327285354246,0.21853988444275044,8.773499851838807,0.08635475167926877,-0.27971106441674776,0.7305073806125404,normal
2024-01-01 00:00:06.850,0.24022953387780913,-0.382471149127402,8.752060257709543,0.8380250651144122,0.9525878015262099,0.08455483248183743,normal
2024-01-01 00:00:06.860,0.07380333005390663,0.3035939229576801,8.242784823091261,0.501839721060156,-0.3919971384889136,0.1546498008589309,normal
2024-01-01 00:00:06.870,-0.25144492461136303,-0.10467303075597818,7.126043925425159,-0.27318178351469047,0.2283442838949257,-0.31263542608238504,normal
2024-01-01 00:00:06.880,0.5102767237947801,0.06375350836516538,6.5493540478098184,-0.17577292021900492,0.42398324695887585,0.23864919592632772,normal
2024-01-01 00:00:06.890,-0.0069224210159904934,-0.11646907110037852,5.61361013894088,0.5077803230385047,-0.00045700763365642876,-0.11862522525782263,normal
2024-01-01 00:00:06.900,0.16556009839489308,-0.08314516268436295,4.742422625586247,0.31018863081339426,-0.1608197994528221,0.4338696145189373,normal
2024-01-01 00:00:06.910,-0.1559429236705265,0.23866608444548065,3.787653718031773,-0.25029927916966493,0.9485284928011459,0.09104061272518499,normal
2024-01-01 00:00:06.920,-0.36543354042220605,0.272116145862053,2.596847903204325,-0.9999387721292741,0.6335370924770475,-0.19869765903074296,normal
2024-01-01 00:00:06.930,-0.5304300327855013,-0.2921333350155789,1.3455966139352291,-0.006331189057269124,0.5601045116304688,0.07278518657320261,normal
2024-01-01 00:00:06.940,-0.9892469913265545,0.45648360389825476,0.6295179947248457,0.13492402739828083,-0.1256935560572123,-0.22900343014874394,normal
2024-01-01 00:00:06.950,0.17401162035729625,-0.07469929586428886,0.6878958986235575,0.05621181624297595,-0.0637111885339955,-0.2883939141509225,normal
2024-01-01 00:00:06.960,-0.5267716681118813,-0.6299623612555197,1.881758890069352,0.14560812625021993,0.44597259374303555,0.0854001669812883,normal
2024-01-01 00:00:06.970,-0.1662168613565325,0.06785457533688578,2.7399826561450786,0.5581402300903184,-0.8241993121424888,-0.05216609246771734,normal
2024-01-01 00:00:06.980,-0.008581795065343711,0.2976370039617096,3.902651587282818,-1.3197830099590042,0.9869767113460401,0.12140044044913394,normal
2024-01-01 00:00:06.990,-0.4524838752282252,0.35599799104523405,4.9719934630606595,-0.1565832903264339,-1.4326018176929682,0.31226150421730203,normal
2024-01-01 00:00:07.000,-0.16384538974555388,0.10042923361621352,5.521256518869677,0.13876258577782036,0.2586297307013873,0.03616002421397047,normal
2024-01-01 00:00:07.010,0.10278175532529282,-0.00032195668441145744,6.643310945250452,-0.5987094326924157,-0.775709610570092,0.36252982399097855,normal
2024-01-01 00:00:07.020,-0.08125087525702272,-0.07276788308394493,7.20925749537593,-0.40160831412191067,0.07656982066211263,0.11294335591380515,normal
2024-01-01 00:00:07.030,0.16094510019030533,-0.25619789857315717,8.05876820807543,0.5276292771978778,-0.16835471745522737,-0.4364964637896481,normal
2024-01-01 00:00:07.040,-0.8019293028046159,-0.7232224684284287,8.58300494266587,0.4649849610006937,-0.22992489348929668,0.4547182095986751,normal
2024-01-01 00:00:07.050,0.1655495136505337,-0.3298623315327754,9.077384095609883,-1.0235869331944294,-0.09582218906886923,0.640501942278533,normal
2024-01-01 00:00:07.060,0.24557140812423794,-0.3265483890909446,9.405764724704872,0.5479373191155791,0.2559415991123058,0.3493489651397121,normal
2024-01-01 00:00:07.070,-0.4105950596018456,0.6186211689467515,9.716648870435243,1.2581549630543247,0.10327590957615253,0.13049509341723559,normal
2024-01-01 00:00:07.080,0.21904142197208393,0.3093057611928044,9.765916010471306,-0.08039778773736496,-1.0298372574629815,0.34421824528476896,normal
2024-01-01 00:00:07.090,-0.1271778381366739,0.37598684586478026,9.557144838894752,-0.9103461438144977,-0.7492132535216229,-0.11179431778849752,normal
2024-01-01 00:00:07.100,-0.08405418568712274,-0.17720506987776155,9.662891889740635,0.7766772783472019,-0.03104608412972093,-0.06251327022317307,normal
2024-01-01 00:00:07.110,0.15633645574643693,0.26110173509664353,9.641460705522919,-0.5681137476013215,0.08095987673983099,0.08961299413889827,normal
2024-01-01 00:00:07.120,-0.45310950549288054,0.23465989050242497,9.107154101386088,-0.03614245696452176,-0.521062529025399,-0.6065945235608909,normal
2024-01-01 00:00:07.130,0.23650559719836495,-0.6598615702566889,8.380688012755298,-0.21562920792129667,0.21442805625416803,-0.023065414183267043,normal
2024-01-01 00:00:07.140,-0.2257010533343095,0.023582680227333612,7.864790943710977,-0.4633172346933911,1.1659198519613707,0.6203528935928978,normal
2024-01-01 00:00:07.150,0.22337013382593773,-0.5084813297258935,7.1400026464446675,0.338916269673665,0.20888114272476602,-0.014820715345019126,normal
2024-01-01 00:00:07.160,-0.031975423307720414,0.24103450713256785,6.165592925169034,-1.285795473183831,-0.7621984382673386,0.13614416357845416,normal
2024-01-01 00:00:07.170,0.07338116346621273,0.32330253291492744,5.4360022378502215,0.5066742687513766,-0.07648208388943968,-0.6399597788967744,normal
2024-01-01 00:00:07.180,-0.2552950285220364,-0.04444049198094936,4.32102647174816,-1.1335835749693046,0.60552439008301,0.32105137499106895,normal
2024-01-01 00:00:07.190,-0.020973214106721413,-0.26034850247020774,3.7152655487653576,-0.5440955588730106,-1.5441412947726232,0.012365426524000184,normal
2024-01-01 00:00:07.200,-0.3567745618889012,0.037652049634230564,2.710370429205558,-0.9443889868996979,-0.04049583651184291,-0.10797367264460467,normal
2024-01-01 00:00:07.210,-0.21517222953866597,0.16765501400008795,1.5588525430978524,0.28343739124231454,-0.4129113844097141,0.18769651536690993,normal
2024-01-01 00:00:07.220,-0.4299780946386844,0.04633900609999055,0.3749288237988485,0.736467647024102,0.4271567623746992,0.5502711344758932,normal
2024-01-01 00:00:07.230,-0.03052634163314628,-0.348381340268635,1.0741577639400979,1.055745429808426,0.28674918339858724,-0.032974439437108836,normal
2024-01-01 00:00:07.240,-0.30732977441691944,-0.23085821884604985,1.888804795485284,0.8675332627334926,-0.42438993823143606,-0.23034161991822377,normal
2024-01-01 00:00:07.250,0.6888896040387864,-0.24596237069949836,2.9662596580618343,0.8844972351883699,0.19894434318087434,0.5046042396672872,normal
2024-01-01 00:00:07.260,-0.27410699699573504,-0.108626880727423,4.302288089222612,0.3069946449319906,-0.2937857835948017,0.39251514632130785,normal
2024-01-01 00:00:07.270,-0.6587105858095019,0.04797709113859239,5.189547394085275,-0.4414261729860658,-0.5702873070019273,-0.14278155552390243,normal
2024-01-01 00:00:07.280,0.3200266420595089,0.6261271536928434,6.269833244327865,-0.6853357597654822,0.189125391181331,0.25042992466080666,normal
2024-01-01 00:00:07.290,-0.12244282512982153,-0.12008164987490735,6.950244605940283,0.1570835703627592,0.12164670914200189,-0.5187632280106441,normal
2024-01-01 00:00:07.300,0.13426351364020336,0.3954734897910591,7.449591559239371,-0.7807786726945048,-0.1457288641132892,0.2254254050712916,normal
2024-01-01 00:00:07.310,0.004722498235843043,0.19606091386514485,8.129671048158613,0.4250550819430793,0.03654327790226534,0.391302551697071,normal
2024-01-01 00:00:07.320,-0.24823902360812575,0.01237253325960592,8.872398877992069,-0.3482734694322303,-0.5825051990682188,0.5332344354781244,normal
2024-01-01 00:00:07.330,-0.19166946937015847,-0.047470834188252424,9.440345819893702,-0.43639521394587655,-1.8861348483172098,-0.36487566993575415,normal
2024-01-01 00:00:07.340,-0.33630106327097065,0.5177960604447178,9.483569287359746,0.5270832699737322,-0.4911588171538348,-0.3521292902480355,normal
2024-01-01 00:00:07.350,0.4091849176791035,0.18492993150549591,9.87645283263726,0.6342919835311073,-0.5647122978983546,0.0403423033246198,normal
2024-01-01 00:00:07.360,0.18190487661238236,-0.0600644801297244,9.948773794272457,0.2680404669709442,0.026416456761167738,-0.2595041300561043,normal
2024-01-01 00:00:07.370,-0.4072790328467588,0.27720845379920084,9.899211045191482,0.2293567544717931,-0.2878393596178241,-0.019014940945801445,normal
2024-01-01 00:00:07.380,0.2774551925925021,-0.4614650983574308,9.377427856220836,-0.614941519068429,-1.2854017739868846,-0.17065769423228144,normal
2024-01-01 00:00:07.390,0.15933119535436044,-0.6974756200042945,9.242580258156686,0.3497226321981676,0.5634238574248863,-0.18498093814690444,normal
2024-01-01 00:00:07.400,-0.5020089103535446,-0.4448968488596298,8.833435068846322,-0.2540680238911678,-0.9202227088816496,-0.1452507471354277,normal
2024-01-01 00:00:07.410,-0.2607890661138484,-0.3612532965912849,8.175250801031865,0.7744639974862861,0.7436586072959911,0.6537983822369697,normal
2024-01-01 00:00:07.420,0.10332480362985548,-0.20542122754965184,7.743131235033478,0.5567322339585451,1.1567150243579278,-0.25196699068465045,normal
2024-01-01 00:00:07.430,0.06764065971442224,-0.14734154969480295,6.9159489299458725,-0.8790369556004393,0.01345359140353318,-0.082332222424286,normal
2024-01-01 00:00:07.440,0.5958646171999171,0.1561018555319533,5.877667819074517,-0.7978477633475672,1.3261299136588207,-0.412442634230501,normal
2024-01-01 00:00:07.450,-0.018189173824240085,0.3425202853390829,5.256482782373796,-0.03151097504379156,1.4028588902756196,-0.5690635187935507,normal
2024-01-01 00:00:07.460,0.2660379822863169,0.3438220570965121,4.191439984970694,0.5944431976741715,0.22078547994628983,0.366741562976176,normal
2024-01-01 00:00:07.470,-0.1626267790845716,0.7054920081161083,3.287042162292089,-1.0953915209275973,0.2537836114328594,0.48696689828496675,normal
2024-01-01 00:00:07.480,-0.05186889661850896,0.044085029180413855,1.9484553394675286,0.8560587208170514,-0.804750374888489,0.11236934062956257,normal
2024-01-01 00:00:07.490,-0.016101715721000154,-0.17543971711607048,1.2307240357722422,0.4493788168967354,-0.3339019700288091,0.09405387066945409,normal
2024-01-01 00:00:07.500,-0.03663014513884479,0.3172268564662218,0.02947522222557961,0.783822507859663,1.0347642977295444,0.5871625069902223,normal
2024-01-01 00:00:07.510,0.04259825181265476,-0.2843598874958132,1.2791705269760487,0.6839185420537778,0.2834882437485458,0.34046232134615084,normal
2024-01-01 00:00:07.520,0.006323768844610355,0.2189396290852269,2.248873693514231,-0.07115087464460662,0.4561915964448262,-0.3496659580269392,normal
2024-01-01 00:00:07.530,-0.5063301427924404,-0.05531395960921644,3.337918563065425,0.16035549037219451,0.604363411764119,0.22014297462407148,normal
2024-01-01 00:00:07.540,0.18914144808347477,0.39212850394566173,4.375168934913506,1.0037993278958466,-0.31032639418426367,0.05452132196907913,normal
2024-01-01 00:00:07.550,-0.3592985155294874,0.40871871262028364,5.257863687424518,0.4606904979466469,0.8470705514787759,0.1945441031436919,normal
2024-01-01 00:00:07.560,0.22672324292119847,-0.42797548328995655,6.148951403743848,0.6351568371764084,0.6857704755128795,0.4395690362227432,normal
2024-01-01 00:00:07.570,0.17358126304685018,-0.3937166567468747,7.00545769045132,0.21294771753624986,0.7308486053575032,0.42322011571859935,normal
2024-01-01 00:00:07.580,0.1884766401206852,-0.22662127190625442,7.829351668799021,0.7072572502742108,-0.267270212028103,0.07602377666767467,normal
2024-01-01 00:00:07.590,-0.19589011240895196,0.49019455894519975,8.350632203265,0.3944479634938182,-1.3051325258755604,0.3975523175993167,normal
2024-01-01 00:00:07.600,0.06832833361492541,0.09276608630844645,8.984129767476562,0.07801132603837635,0.3625815207130174,-0.30548704779481234,normal
2024-01-01 00:00:07.610,0.1980732635638846,-0.4101616171249714,9.331927530311566,1.2391443268920337,0.07407300204564375,0.0821910614906621,normal
2024-01-01 00:00:07.620,-0.17598667310027835,0.39483783690158497,9.652310138759281,0.39556134181514047,0.7773137830163036,0.6404496701818138,normal
2024-01-01 00:00:07.630,-0.4584255540993352,0.1335094940490419,10.184891652853377,-0.007535746667261417,0.029344381663045607,-0.5158350881359025,normal
2024-01-01 00:00:07.640,0.49869350368622983,0.3351159146558041,10.034203243949916,-0.5433800195985246,0.6400218436735597,-0.5617771705012083,normal
2024-01-01 00:00:07.650,-0.08627945120872098,-0.17242021774720973,9.951185907697244,0.9698603094857862,-0.23737355392371595,0.13641235576999916,normal
2024-01-01 00:00:07.660,-0.16336677497263968,0.28170461125144813,9.512885008759477,-0.5047080405008294,-0.23062439075713403,-0.19896608206028235,normal
2024-01-01 00:00:07.670,-0.313919179275198,-0.0003113606788880994,9.212786679666042,0.09854899953096628,-0.9475638713610719,0.34222809358527395,normal
2024-01-01 00:00:07.680,-0.38425906161607776,0.10082513502203698,8.715646470511384,0.11845769913954467,0.5808536481845151,-0.007415933918504472,normal
2024-01-01 00:00:07.690,-0.8176758010869771,-0.5546290023646964,8.064178284498333,-0.5932284461714323,-0.43526082120169557,-0.31602972165368176,normal
2024-01-01 00:00:07.700,-0.3372057309833645,-0.16686405153267037,7.420093815350221,0.567720485309162,0.5380111446150724,-0.7201534465358136,normal
2024-01-01 00:00:07.710,-0.339559536151991,0.2810084996781859,6.614434635590458,-0.22115115000647628,-0.2849766510488863,-0.2660515803839648,normal
2024-01-01 00:00:07.720,-0.2758000590771905,0.3134542378720317,5.960978700854743,-0.6814423255806445,0.5402803786663777,-0.31792335536915034,normal
2024-01-01 00:00:07.730,0.5662027510716175,0.27782017403250525,4.946238790137996,-0.4336484782220499,0.23903224975243742,0.5122536975337649,normal
2024-01-01 00:00:07.740,-0.0476827918775088,0.02453350720622119,3.990534109463022,-0.012947323350633306,0.03192197643809648,0.20657369105458584,normal
2024-01-01 00:00:07.750,-0.1301042788305024,0.04459353389519415,3.0369717341521105,-0.5734255131415271,-0.5459048879913636,0.9765660971342828,normal
2024-01-01 00:00:07.760,0.011216955915976623,0.24050945406765528,1.9635825194040055,-0.2338418493150852,-1.1926604281731796,0.10173739840424484,normal
2024-01-01 00:00:07.770,-0.24248468035393894,-0.0454945897031904,0.4825493077323383,0.457026080415169,-0.3869259178230192,-0.5513549589428322,normal
2024-01-01 00:00:07.780,0.3796529469430454,-0.05241328235331303,0.38860518507482233,0.6198312034933333,0.17082739909678804,-0.6961053260179378,normal
2024-01-01 00:00:07.790,0.36254819586470255,0.13231875448385455,1.3049828086145772,-0.5033038047626043,0.4021984530265848,0.12449056218342516,normal
2024-01-01 00:00:07.800,-0.2332163709927005,0.18288006251942335,2.372082275006538,0.4661774589793077,0.6722096656130929,0.48420405190028104,normal
2024-01-01 00:00:07.810,0.29133015228335035,-0.19176209799462715,3.4307639096404103,0.12175316661836914,0.20232384427311856,0.645392652471872,normal
2024-01-01 00:00:07.820,0.22258116810345385,0.36116547857583575,4.582030055465554,-0.8422085786300098,1.0500359741311474,-0.022991491062441798,normal
2024-01-01 00:00:07.830,0.790481979253711,0.26183008340691133,5.619751690147719,0.06592228060537561,0.06329242446684437,-0.2392946199351111,normal
2024-01-01 00:00:07.840,0.3746864612040725,0.03191509590359625,6.307433205141241,0.906502306689112,0.6514278810484817,-0.010479341313269743,normal
2024-01-01 00:00:07.850,-0.4196243537491637,-0.21006971750070966,7.0953656348655025,-1.4393951707372254,0.7318565085192104,0.668886123204806,normal
2024-01-01 00:00:07.860,-0.1222085751488208,0.21228252274290704,7.929307932866839,-0.28056203558405557,0.27668545034624975,0.046808479249541075,normal
2024-01-01 00:00:07.870,0.24248604913829433,0.2926023395984427,8.545444112290163,0.33095473387530805,0.3268451772114863,-0.17655553405939797,normal
2024-01-01 00:00:07.880,0.17274835984576672,-0.020840926216431344,9.191579878071668,1.386316600494419,-0.42693304974396695,-0.160793367569232,normal
2024-01-01 00:00:07.890,0.3757698617075113,-0.05629049020174372,9.194830585942373,0.01672740718267489,-0.9409007292697488,-0.21316934797689507,normal
2024-01-01 00:00:07.900,-0.04049643790710602,0.1837580580321315,9.577298609098916,0.8383566076565897,0.10874422445546515,-0.27806123828039353,normal
2024-01-01 00:00:07.910,0.07864886505470219,-0.021098453962054408,9.981853177983446,0.31898108674380404,0.42243573400269474,0.10055798392910545,normal
2024-01-01 00:00:07.920,0.4420691888648651,0.6306555226366816,9.974974315811059,-1.181143656383601,-0.7239989048393235,0.004247447114753165,normal
2024-01-01 00:00:07.930,0.18109089912993687,0.1595944477405805,9.476860811951493,0.5236136561386354,0.3503781155074278,0.06741340317612717,normal
2024-01-01 00:00:07.940,-0.006035708288641543,0.15768049602396014,9.389684291663938,0.5498457596665277,-0.11708340167917856,-0.2909502739818337,normal
2024-01-01 00:00:07.950,0.719022684495501,0.416218923398905,8.828961891258801,0.08396472785564361,-0.17145527756945164,0.0672514188588202,normal
2024-01-01 00:00:07.960,-0.019925229884001396,0.2189953716333984,8.565060593510381,0.2993347162337715,-0.13367127726581735,0.07721709440272814,normal
2024-01-01 00:00:07.970,0.053637470831711276,0.2868635296201526,7.994313208999933,0.9358711425586801,-0.2295728174570628,-0.3042741407550068,normal
2024-01-01 00:00:07.980,-0.252602298820765,-0.05550376419081031,7.628542162113232,1.330606264185621,0.8264364737927157,0.2938482100791335,normal
2024-01-01 00:00:07.990,0.08548440726065006,0.009322707591690614,6.701535377525139,0.24312080055658902,0.0824832440617684,0.18597814098091836,normal
2024-01-01 00:00:08.000,-0.5121125961383173,0.006127022438804876,5.814333487811504,-0.02738422010109467,0.6550535705299833,-0.055373475785740006,normal
2024-01-01 00:00:08.010,0.466710863827811,0.29579679730426056,4.767820453881729,0.3580940945308436,1.5684103076507183,0.5465016934155417,normal
2024-01-01 00:00:08.020,-0.6587205424421553,0.29289745408855355,3.9627055912939104,1.1110600994538942,0.9352376527453249,-0.04792245612045797,normal
