timestamp,acc_x,acc_y,acc_z,gyro_x,gyro_y,gyro_z,label
2024-01-01 00:00:00.000,0.01025783017595525,0.7383369028178104,-0.027029053595130182,-0.19101842107756048,-1.072054579801049,0.06677777199464398,normal
2024-01-01 00:00:00.010,0.4079242620929885,-0.4590929586890438,1.0644213937133653,-0.3570678742770641,-0.6255027560397667,0.3151538669001506,normal
2024-01-01 00:00:00.020,0.3674163235757797,-0.05118871028512437,2.139679635830901,-0.16984483368524786,0.973498854170831,0.19438199641936635,normal
2024-01-01 00:00:00.030,-0.15309212303630024,0.3037257930049066,3.0812510404511624,0.940621090035689,0.5525481077476334,0.009291958735386224,normal
2024-01-01 00:00:00.040,-0.08939085333193413,0.3010862211474203,4.153076361413102,1.426960762769353,-0.387384310284884,-0.35714386735681,normal
2024-01-01 00:00:00.050,-0.15821525791002755,-0.496683452415681,5.204641361062081,0.47601841318095856,0.44505388493552245,0.5634622297530072,normal
2024-01-01 00:00:00.060,0.17091790727158804,-0.29282514802887544,6.229691950955499,-0.6247722137794465,1.0356629111386235,0.026933415318614342,normal
2024-01-01 00:00:00.070,-0.016819331713685277,-0.03693545985096565,6.7704702154090795,-0.46070197969380366,-1.4706744838986254,-0.22975820367979854,normal
2024-01-01 00:00:00.080,0.22406568487696318,-0.2486803259616638,7.936265476198512,-0.012916395889960105,0.764946416886613,-0.1715941797574072,normal
2024-01-01 00:00:00.090,-0.5541974396922328,-0.20942552941609077,8.293989325142105,0.13452579272819323,-0.9101732000924466,-0.09273491346704643,normal
2024-01-01 00:00:00.100,0.46996463240985614,-0.08355312003291455,9.000581684994545,0.2897741924668049,0.27445538097041056,-0.10848569129179648,normal
2024-01-01 00:00:00.110,-0.028929648046686164,-0.05446715409188196,9.14479577274714,0.18714074813646575,0.23265342154759897,-0.4695363865551319,normal
2024-01-01 00:00:00.120,0.20411353598224383,0.32444615352724204,9.407505138075333,1.0824607686071404,-0.2698365465672544,-0.5089880538158875,normal
2024-01-01 00:00:00.130,-0.040969900193048324,-0.5198880042626793,9.933810150840644,0.445261532764007,0.6261023207688423,0.3543642503122014,normal
2024-01-01 00:00:00.140,-0.11372957012245598,0.3109423538050315,9.89834034604983,0.7356017552115577,-0.0975955263792536,0.06981254281682833,normal
2024-01-01 00:00:00.150,0.13893304757927602,-0.07558290551038267,9.435914320039004,0.321061636831145,-0.044358096074314,0.11155598826725109,normal
2024-01-01 00:00:00.160,0.2473540582590339,0.16873946194403242,9.608807858418155,0.5774502448896424,-0.28384666143430815,-0.4591037769927956,normal
2024-01-01 00:00:00.170,-0.06075896120803545,-0.11193435629714824,8.963617169961024,-0.23389009291294047,-1.4404215156614768,-0.44292188749176364,normal
2024-01-01 00:00:00.180,-0.04583585357105912,0.7010070402502505,8.838998395729144,-0.08894594120155123,0.005040007074499192,-0.08333749447561256,normal
2024-01-01 00:00:00.190,0.20570958324277738,-0.5491914784385676,8.336756201631621,0.8447333467853011,-0.14167345941751042,0.24558464787003983,normal
2024-01-01 00:00:00.200,-0.26110219258415135,0.3504823136769845,7.560723222799218,-0.8686622133416593,-0.9054376928006114,-0.04030078776304823,normal
2024-01-01 00:00:00.210,-0.4543150511194186,-0.14062634045114156,6.7560264066001965,-0.6228493465146261,0.07857676301487394,0.04890029821054796,normal
2024-01-01 00:00:00.220,0.118494558824859,-0.07576343260972536,5.937662876820153,0.8216699498453455,-0.6195707092617413,-0.41888454474550085,normal
2024-01-01 00:00:00.230,-0.20116974710636382,0.4219656527218653,5.03779009009284,0.48950314142776324,0.3490055822238138,-0.04773654012686947,normal
2024-01-01 00:00:00.240,-0.5761021770354086,-0.06668320974860541,3.9386377766522305,-0.355514756492158,0.8529697665909223,0.20435025959197384,normal
2024-01-01 00:00:00.250,-0.24421609918360784,0.2671364655460813,3.0972083562369717,-0.5158127360983038,0.5655494917254666,-0.2937313224722811,normal
2024-01-01 00:00:00.260,-0.1402792676678241,0.4323530922169666,1.867392872899107,0.917305438793226,0.4649305151472434,-0.15680204583271307,normal
2024-01-01 00:00:00.270,-0.35796074322967836,-0.18445830609367217,0.5976512669968825,-0.11073753439048692,-0.06868801643057289,0.29025965222461764,normal
2024-01-01 00:00:00.280,-0.4477391652189101,0.6049213314333911,0.29413256660974274,0.9052218119157299,0.9861462364492801,0.21166332954934863,normal
2024-01-01 00:00:00.290,0.010991348083441526,0.3755915872716545,1.6251415947136927,0.38656050732380176,0.10086835485520695,-0.35125923414133775,normal
2024-01-01 00:00:00.300,0.26917477701832426,-0.07043735576234184,2.6028297987788322,0.29583356999634514,-1.8037234302543586,-0.14171913130650887,normal
2024-01-01 00:00:00.310,-0.06993962338813706,0.06380141564201268,3.471032854435407,0.07166080354906683,-0.5736237008199636,-0.00866208882986865,normal
2024-01-01 00:00:00.320,-0.22307880885265344,-0.21814535548530808,4.396209526269272,-0.31067280352597026,0.11569547254458283,-0.9710739295071767,normal
2024-01-01 00:00:00.330,0.11549814262437248,0.08566192595226484,5.38495012247685,-0.4364414753049481,0.42540111924254137,-0.2571755710449599,normal
2024-01-01 00:00:00.340,0.21517074215831514,0.2600275944329431,6.553774369244915,-0.34017525513423075,0.043016167225910985,0.08331653830958967,normal
2024-01-01 00:00:00.350,-0.09000317954654322,0.3002553319896771,7.268789353600339,1.0681622130361565,0.40912611585156927,0.3859472797943623,normal
2024-01-01 00:00:00.360,0.16340034237626785,0.06560453223298067,7.733380704747338,0.6712297967742865,0.599765862019012,-0.4472827910187139,normal
2024-01-01 00:00:00.370,0.31286264297488614,-0.15824700109399303,8.512892932659188,0.8357539641255566,-1.4257439140951016,-0.1506358626127211,normal
2024-01-01 00:00:00.380,-0.06208693086249718,-0.1966676533844939,9.209932899099218,-0.25008465152343534,-0.28005097864192,0.05246134533997672,normal
2024-01-01 00:00:00.390,-0.24405466259447167,-0.2905789515124254,9.38211099783471,-0.13327472965115342,-0.3592718765205863,0.5309074046034958,normal
2024-01-01 00:00:00.400,0.10429517955465285,-0.08628583596833679,9.658578070153666,-0.997831774804005,-0.9099442857882869,-0.324953003284204,normal
2024-01-01 00:00:00.410,0.07426372228885426,0.17918378371862975,9.69985062372166,-0.15640463788321904,-1.073086829519307,0.8022865393510027,normal
2024-01-01 00:00:00.420,0.3296438305243225,-0.17750209194859853,9.549870833150955,-0.10336959395041469,0.43325757412744315,-0.14635608143221546,normal
2024-01-01 00:00:00.430,-0.38537423364160345,-0.20753142541028713,9.836489637935896,-1.1356473402772,-0.01246614899718352,-0.10252611130339388,normal
2024-01-01 00:00:00.440,-0.1984838791066643,-0.32089343347074706,9.572653736412848,-0.17138833931112749,0.22670665034400297,-0.17502206705698709,normal
2024-01-01 00:00:00.450,-0.2514500882147023,0.16979908822266832,9.236086844261356,-0.9753471126809148,-0.4676006651321239,-0.37819665318314405,normal
2024-01-01 00:00:00.460,-0.5202044538698555,-0.08069953310059,8.853083527551023,0.04168146547501565,0.3379295679292643,0.09143857649389127,normal
2024-01-01 00:00:00.470,0.03793036655909886,-0.4903949551154642,8.070983995651604,0.6261360218426034,-0.8776863901378591,-0.05976977999543414,normal
2024-01-01 00:00:00.480,0.1583412637486572,0.3310700342075148,7.341393711375543,-0.11578450418050969,-0.23080803168328515,-0.4604678694039085,normal
2024-01-01 00:00:00.490,-0.22163700944274192,0.31625773144424946,6.696728121072498,-0.18589790352226515,-1.4718236328282404,0.44897967084533846,normal
2024-01-01 00:00:00.500,0.41569412234884756,0.0029854520598303082,5.584105257762235,0.12392650484864738,0.2628236282306205,-0.36698087164709947,normal
2024-01-01 00:00:00.510,0.24657730099813058,-0.1085978727920578,4.5397260527902805,-0.0017429868176255681,-0.02153833504046887,-0.10404711595381456,normal
2024-01-01 00:00:00.520,0.18821294365066057,-0.013425145633820308,3.7883012486259178,0.7211105287054188,-0.1013640246377433,0.0705372171364553,normal
2024-01-01 00:00:00.530,0.12051212743229096,-0.2812761200108838,2.703198996682582,-0.4831241884679874,-0.1025569682870692,0.20629535704639393,normal
2024-01-01 00:00:00.540,0.2867008693345905,0.2993376909202095,1.5863031888140124,0.3143531309498575,0.017112583049538332,0.04824152219653913,normal
2024-01-01 00:00:00.550,-0.3995939518629306,0.41410340880341656,0.6344870447678141,-0.1019584648700545,0.31734582431073777,0.8727655010714883,normal
2024-01-01 00:00:00.560,0.1841788974749593,0.3066221304768646,0.607162097959826,-0.8851009529842455,0.1675720491311612,-0.3706443624673862,normal
2024-01-01 00:00:00.570,0.18083305006003436,0.0688243987210567,1.5012208861752643,0.0677316312043267,0.4179249321518008,-0.017445980413930973,normal
2024-01-01 00:00:00.580,-0.5303155731428925,0.06720228799730296,2.374695878258902,0.4153269424134727,-0.19738079398470756,-0.35885896714198234,normal
2024-01-01 00:00:00.590,0.10410903061631392,0.15717723852970714,3.469146249909481,0.8348630628505782,-0.5717326723249315,0.24478675354377638,normal
2024-01-01 00:00:00.600,-0.07512640401299052,0.5109168690495288,4.5898818342336645,-0.8465016692524919,-0.6120736446370435,-0.494094919815938,normal
2024-01-01 00:00:00.610,0.23445680881850978,-0.2423086034154871,5.635659388701887,-0.40483225811639645,0.3454672774160531,0.13275382893587434,normal
2024-01-01 00:00:00.620,-0.13171865629130056,-0.008528420611324288,6.533745806505975,0.029674593669409527,-1.3522114178310711,0.14321803077883424,normal
2024-01-01 00:00:00.630,-0.005472257294730099,-0.20996823037040976,7.395993608451874,-1.5563545773107694,0.43657428145224936,0.08586865660126293,normal
2024-01-01 00:00:00.640,0.10285545519529665,-0.36765177237634855,8.32309026954727,-0.26808210710637653,-0.0013863001284321417,-0.07581838657785608,normal
2024-01-01 00:00:00.650,-0.2628785066232623,0.09721186104441616,8.4481928826599,0.2296468383566781,-1.0389275866908938,0.17631316810781328,normal
2024-01-01 00:00:00.660,0.17957899445411532,0.33726606422729016,9.235209162350674,1.1083492636080483,0.02111019084132346,0.5367078625643847,normal
2024-01-01 00:00:00.670,-0.03148895655710047,-0.3214190449161625,9.41371591942515,0.21195783610767074,0.2212165781089702,-0.12824722840938244,normal
2024-01-01 00:00:00.680,0.14774478710377284,0.2935187531133144,9.709725525726522,-0.7595163848526246,0.5711534661092935,-0.22177515622766886,normal
2024-01-01 00:00:00.690,-0.15655125190103633,0.19887948159380006,9.751879755591977,0.3062406095231614,0.9026356882021228,-0.29862924876087693,normal
2024-01-01 00:00:00.700,0.3258604629832553,0.13698686023452947,9.960697272889755,0.5191586004091017,-0.28965161439860143,0.7762308308857144,normal
2024-01-01 00:00:00.710,0.18156059352884227,0.40590285458653036,9.793698598918928,-1.1563516919006993,-1.1768882814231667,0.5882880020394257,normal
2024-01-01 00:00:00.720,-0.05340750741580102,-0.20118405791023694,9.637142566530342,0.20087099299246217,0.43629003876640265,0.1506002798870235,normal
2024-01-01 00:00:00.730,0.18958714712808303,0.48199166101293517,9.35360694611473,1.0775066739012047,0.4497931982183924,-0.03994352384392978,normal
2024-01-01 00:00:00.740,0.3779265484075875,-0.11100726978388051,8.342903067589818,0.25775939471818055,0.45885097079075754,-0.3170564411441191,normal
2024-01-01 00:00:00.750,0.5373526540493966,0.15982864434848473,7.9312912898261505,-0.008894039061013138,-0.8754797451155778,0.1309032179516332,normal
2024-01-01 00:00:00.760,-0.47207291113206584,-0.4672741336594618,7.383733092755552,-0.5427882378011585,0.6163216228897342,-0.22431219031997957,normal
2024-01-01 00:00:00.770,0.26493954348675586,0.2892802171697656,6.607457844236194,-0.4674433567073047,0.0996902607380407,0.7254818267586631,normal
2024-01-01 00:00:00.780,0.13952055255401438,0.0052061343066984135,5.662300059115503,1.1464939414581534,-0.6061768225854546,-0.6268606688938103,normal
2024-01-01 00:00:00.790,-0.028158234055903196,-0.17320268030612992,4.526454417800775,-0.027045052687469512,0.1006545180226098,-0.1292640394378694,normal
2024-01-01 00:00:00.800,-0.30199948049312136,-0.31291398783625823,3.9385517995777635,0.4985860247817511,0.5561338287392585,-0.4575190468543175,normal
2024-01-01 00:00:00.810,0.3771565840419431,0.05669224999999339,2.4362561981231248,0.676475991976673,-1.133592809536542,0.3186172294417769,normal
2024-01-01 00:00:00.820,-0.37852139803337115,0.3950690505443912,1.634742810659601,0.5246621088108046,1.6069611992180415,-0.022507543207142402,normal
2024-01-01 00:00:00.830,0.17008363972042467,0.1551565814037271,0.3217966074653956,0.0745039496064899,0.8108753217362212,-0.8264289742559812,normal
2024-01-01 00:00:00.840,0.39056039886080685,-0.10670398624673737,0.7132471332792351,0.2426639011639069,1.178402101503721,-0.1362836173132878,normal
2024-01-01 00:00:00.850,-0.47990078641544387,-0.2346405383698491,1.9895585296202436,-0.9090269558107692,0.5822160865668271,0.38658040299012086,normal
2024-01-01 00:00:00.860,-0.09075535214497871,-0.31927937139302826,2.8037019852068754,-0.5570542949630329,-0.446583024004318,0.29076322995084747,normal
2024-01-01 00:00:00.870,-0.39276504525488976,-0.10350425563071879,4.089513956183542,0.05117804758933269,0.56377676603574,-0.060839177145201775,normal
2024-01-01 00:00:00.880,0.07321623241077016,-0.4869404779964042,4.971929187845957,0.7063668688649477,-0.6228725953445645,-0.04368167403613683,normal
2024-01-01 00:00:00.890,0.4543125392023964,-0.11833509205327475,5.723479623664005,1.5064045535434791,1.330883023446939,-0.0014248204637728975,normal
2024-01-01 00:00:00.900,0.6070668087516593,0.32348345127089795,6.7204437898808775,-0.17974818964748127,0.11404380939676957,-0.03360813433018195,normal
2024-01-01 00:00:00.910,-0.5334343328650545,-0.023908533369407046,7.531639101527009,0.8815391371990281,0.17425905119155313,-0.47045893870322975,normal
2024-01-01 00:00:00.920,-0.17248470171631802,-0.05243557542336134,8.266524636196698,0.5518850423154182,-0.9211899171944351,0.07304336760359488,normal
2024-01-01 00:00:00.930,0.21106352799927341,-0.18643983813311385,8.895437130815475,-0.234585720300732,0.3955674413160887,0.5122509309621339,normal
2024-01-01 00:00:00.940,0.4738117956279665,0.20784785442117312,8.96962590588932,-0.07423069497935546,0.525336610931411,-0.3762906704367349,normal
2024-01-01 00:00:00.950,0.12636319328348927,0.1833310620677534,9.395768324969204,-0.6760835365663033,-0.4529463131107636,-0.13930235202639613,normal
2024-01-01 00:00:00.960,-0.22384559927721281,0.4202925223689468,9.6155867992141,0.6079987781479312,-0.412643964564752,-0.17800280685081682,normal
2024-01-01 00:00:00.970,0.08913945289123155,-0.21662418431300431,9.603429823102559,1.1078387120714237,-0.9850841680781462,-0.05505202027470964,normal
2024-01-01 00:00:00.980,-0.004985760294249975,-0.3418636950745765,10.081524333981706,-0.1198475389029964,-0.40901978421471846,-0.09469627136102482,normal
2024-01-01 00:00:00.990,-0.061122216716450815,-0.19006183356703704,9.553171732281616,0.044623217000303465,-0.5339013583407634,0.0007563183680551928,normal
2024-01-01 00:00:01.000,-0.22034132956422608,-0.3778123895044538,9.294895279202626,0.49058189055484835,-0.11251629139671472,-0.5939193300578213,normal
2024-01-01 00:00:01.010,0.11617792678290166,-0.0237159182101543,8.875684986476898,0.48387483339407633,-0.1183323450207207,-0.13165813365601184,normal
2024-01-01 00:00:01.020,0.09236388790974336,-0.13846384635667788,8.287730217177263,-0.4658311841245551,0.48961203297543754,0.6214896755067982,normal
2024-01-01 00:00:01.030,-0.027895238272905073,-0.2676900530290104,7.937575171139337,0.3652059981077593,0.6791018462140551,0.2131147450574522,normal
2024-01-01 00:00:01.040,-0.06650638191020103,-0.024435353635192177,7.097955846750759,-0.08642982185775983,-0.1270782572772983,0.016185515084362567,normal
2024-01-01 00:00:01.050,-0.3854749711619019,0.2921435166713294,6.159839569285847,0.8492483825007736,-0.8519982257880142,-0.4306342268868888,normal
2024-01-01 00:00:01.060,-0.14585270014243,0.20526936512702273,5.321089155115742,0.5196119628879404,0.49320715656137837,-0.2362754317203874,normal
2024-01-01 00:00:01.070,0.3619349014039927,-0.1987394666507576,4.468594934183883,-0.6444095319756991,0.8687491266314149,0.10103137740670305,normal
2024-01-01 00:00:01.080,-0.057167477059808465,0.00034279049556089233,3.4360150193767223,0.12377419549856591,-0.014320936386626449,-0.7981186181165449,normal
2024-01-01 00:00:01.090,-0.4319091950514376,0.0839206253647932,2.4593014024166395,0.6439683344607677,0.30911386495531074,0.1899084256601604,normal
2024-01-01 00:00:01.100,0.4003328420853949,0.18832367063903183,1.431044381412481,0.18895578239614055,-0.5737250303657287,-0.2636626742459494,normal
2024-01-01 00:00:01.110,0.15907962254487606,-0.11406636731577989,0.05605872160050293,-0.5947672544868448,0.7742873974307465,-0.40652598354731806,normal
2024-01-01 00:00:01.120,0.632426108587591,-0.39727961885402097,0.8436652962364993,-0.9749716491029451,0.5972161021893377,0.4469828836605367,normal
2024-01-01 00:00:01.130,0.01875365081751599,0.09253491581100277,2.0157917158211225,-0.4155089414955551,-0.5738494424692256,-0.0022044059916647165,normal
2024-01-01 00:00:01.140,-0.13841537371550763,-0.3023275799066108,3.175621208861493,-0.2849790499962747,-0.11071735445513553,-0.38735450218106166,normal
2024-01-01 00:00:01.150,-0.43429340963266394,-0.12199324131622667,4.091628191201145,-0.3627029130266469,-0.6950372837526407,-0.40091540078826887,normal
2024-01-01 00:00:01.160,0.3971515110191638,-0.09176838932990868,5.206322631850087,-1.1078025118759107,-0.022019473701594773,-0.0703724111226206,normal
2024-01-01 00:00:01.170,0.7708534538971535,0.26525348704733975,5.882844265773949,0.2696238051327701,0.11045027235849755,-0.5180493708794738,normal
2024-01-01 00:00:01.180,-0.2462804811671625,-0.1525242554967267,6.893552222990463,0.21713932533132535,0.5687222775580845,0.06691839516953096,normal
2024-01-01 00:00:01.190,-0.1941262920672595,0.03757587997907286,7.692827744536563,-0.49613030057198915,0.058969480977167414,0.6564284176609301,normal
2024-01-01 00:00:01.200,0.17885663960170248,-0.07560713928933012,8.161160164912982,0.45776527999768146,0.05385718313752651,-0.01821793636092797,normal
2024-01-01 00:00:01.210,-0.249103630624016,-0.17591419545735357,8.943591883963842,0.16859964195954008,0.1671801029610253,-0.15363493614982146,normal
2024-01-01 00:00:01.220,-0.08116751009765678,0.2523656645519082,9.505276754356647,-0.2900616691234142,-0.33938253132001456,-0.4813038385209613,normal
2024-01-01 00:00:01.230,-0.10495130983262083,-0.1501873488313408,9.101897668994702,0.23810922210859214,-0.1653163537278026,-0.2822832383432994,normal
2024-01-01 00:00:01.240,0.05758766618761714,0.13164355159035818,9.632628354053,-0.3526180333718977,-0.33368123527071203,-0.10837995234556498,normal
2024-01-01 00:00:01.250,0.328445533020204,0.0744483648201175,9.786098583526023,0.22836710842326094,0.38699279823154065,-0.01818160673092485,normal
2024-01-01 00:00:01.260,0.006620276914175907,-0.5665257565694455,9.867706330801584,-0.8835973494613023,0.06978614750143045,0.8462664376165793,normal
2024-01-01 00:00:01.270,0.27567302873404165,-0.5061800288705283,9.411863664046054,-0.15905025843662862,-1.0102912166076425,-0.049586720360299125,normal
2024-01-01 00:00:01.280,-0.12596666880014806,-0.957187812926395,9.279600470015309,-0.8649882626570821,-0.17031819007222423,-0.18012456682526246,normal
2024-01-01 00:00:01.290,0.09833956071702095,0.07687415175226663,9.042258658427958,0.315384040797686,0.1744620648268262,0.031972842769765794,normal
2024-01-01 00:00:01.300,-0.6414676768539568,0.06636493957261674,8.331700581503414,0.8298749750920454,0.005634537113900436,0.3699330972547349,normal
2024-01-01 00:00:01.310,-0.4349844200344165,-0.16853504402183916,7.557033017677949,1.1282749949871311,-0.6308322113889169,0.1392195381843759,normal
2024-01-01 00:00:01.320,0.23877402380453225,-0.16839319590090787,6.808967042899894,-0.12941963967937728,-0.6556697517667326,-0.5667308305472489,normal
2024-01-01 00:00:01.330,-0.17704481971228378,-0.10728923519922633,6.101738138127238,-0.796248277642893,-0.39726245129971066,0.460675714696254,normal
2024-01-01 00:00:01.340,0.17397447704179722,-0.20033694731348034,5.224123189972688,0.510604629569545,-0.29415676609982394,0.25513965182204895,normal
2024-01-01 00:00:01.350,0.16270327644439322,-0.023063089969761596,4.238019138915105,0.39552374537661705,0.11306611383966428,-0.3230074432382425,normal
2024-01-01 00:00:01.360,0.39668365747104434,-0.02249452117046769,3.1542218782491025,-0.5643989514886479,-0.3211724850258231,-0.17784862473907018,normal
2024-01-01 00:00:01.370,0.24355771790286032,-0.2782990109282959,1.756425922594037,0.543141406755865,-0.8015896374975143,-0.2558053417539516,normal
2024-01-01 00:00:01.380,0.30509740504998334,0.41547985680145333,0.8623241775703657,0.17093844301842254,-0.06179307385616225,0.1628866005138929,normal
2024-01-01 00:00:01.390,-0.033501399199262816,0.29135382665761206,0.07881339427630013,0.7115524298969363,0.3775225846156269,0.2421300113555337,normal
2024-01-01 00:00:01.400,-0.20948555296886343,-0.1329561986633125,1.2573550598796086,-0.39784208952616923,-0.28755362918372596,0.023760306713755494,normal
2024-01-01 00:00:01.410,-0.2194676333176992,0.63946539450956,2.4040189374770016,-0.578924421894932,0.7448220152800583,0.1588864174521068,normal
2024-01-01 00:00:01.420,-0.1464131820866198,0.7237350523570619,3.288168734398012,-0.1697052406114344,0.7711405153348265,-0.31398932726309164,normal
2024-01-01 00:00:01.430,-0.3389487342039317,0.3613600410599964,4.507159011664804,-0.1390168995415463,-0.616481466286979,-0.054402021606625134,normal
2024-01-01 00:00:01.440,-0.16423307463610745,0.3478138130188807,5.598358448673636,0.29254291599535376,0.24238339549626056,0.32770341691375177,normal
2024-01-01 00:00:01.450,-0.027770715452542245,-0.1843942816597291,6.331702808786581,-0.01109460121244223,-0.23541213553938775,-0.2183525387688693,normal
2024-01-01 00:00:01.460,0.07548358713174436,-0.1037701644114039,7.1870224590270215,0.08327854259168675,-0.6127492736918072,-0.757292511525099,normal
2024-01-01 00:00:01.470,-0.1016672370209356,-0.4829246122165979,7.727550653877312,0.5716277232388707,-0.11170632776202861,-0.09133775815869405,normal
2024-01-01 00:00:01.480,-0.5771048599059846,-0.13450228199956482,8.263279614404686,-0.2617882604293097,-0.282893586381928,-0.2945320303870686,normal
2024-01-01 00:00:01.490,-0.021684886350877116,0.28347639947623665,9.00278895999155,-0.4291617077636536,-1.161335974372322,-0.0027443304573145796,normal
2024-01-01 00:00:01.500,0.06760373610816535,-0.13153655773927345,9.389047959802344,0.6189476510487656,0.4038692645813027,-0.3818472536356932,normal
2024-01-01 00:00:01.510,0.3253426783931532,-0.5116083305719397,9.773113715248467,-0.5242865383749369,0.0776179796432735,0.01663170308030417,normal
2024-01-01 00:00:01.520,0.173359168684748,0.4717655306423883,9.72179477200931,-0.46185706533187265,-0.20174963006669824,-0.15307981992032846,normal
2024-01-01 00:00:01.530,-0.19306820584365286,0.5811898472560243,9.651615303921675,-0.2604123125816015,0.02247718467055247,0.4507350835149567,normal
2024-01-01 00:00:01.540,-0.21713296803741536,0.445478077368212,9.562887129680341,-0.23939418673153312,0.3888203037948,-0.08410971674813826,normal
2024-01-01 00:00:01.550,0.603179256712717,-0.4663124548985811,9.536094421272683,0.8193583547825105,0.012973282324413716,-0.15226214486671433,normal
2024-01-01 00:00:01.560,0.22699138620517048,0.24006171249242775,8.864926647722644,-1.0332070513294773,-0.2643573561959158,0.17753015964390864,normal
2024-01-01 00:00:01.570,0.5494319468213523,-0.2564811232234702,8.906507305022043,0.3214684773232664,0.17934227593832544,-0.2376598519540251,normal
2024-01-01 00:00:01.580,0.6388333593658959,-0.04941251033509921,8.079945555700931,0.2257638439032696,-1.0053394726522973,0.11399418631426889,normal
2024-01-01 00:00:01.590,-0.24542509998161788,0.20208342952639466,7.473251138178593,-0.4889253538272295,0.5862316577013712,-1.0809384755072928,normal
2024-01-01 00:00:01.600,0.11558079068323765,0.45187027677218405,6.668050577901106,0.2156808457520067,-0.24638259858208308,-0.029618530424262025,normal
2024-01-01 00:00:01.610,0.13745010145111403,-0.1950760916218384,6.09595858696159,0.38108143595934185,0.32757335225007467,-0.3704909204617113,normal
2024-01-01 00:00:01.620,0.16788366721856576,-0.11189752144040113,4.7344863570838465,0.6973353777254195,-0.3401963802345865,-0.5220764803855252,normal
2024-01-01 00:00:01.630,0.16257066758462016,-0.38655360463837585,4.0543078968090365,0.18876139147724885,-0.21371230721373416,0.44257450899774964,normal
2024-01-01 00:00:01.640,0.06061639107347426,-0.005099555670822274,2.971037425332911,-0.4690331318172085,0.2421561880684685,0.07485235352037495,normal
2024-01-01 00:00:01.650,0.05223877327492894,-0.2999635251425685,2.0104484654603736,1.0053902123904568,0.18542239526482546,-0.49761019959709796,normal
2024-01-01 00:00:01.660,-0.450749982328332,-0.15622891023842314,0.8627045865822309,0.11021854968639425,0.779366163911768,-0.41699993112367467,normal
2024-01-01 00:00:01.670,-0.04962035495527455,0.22111601734771996,0.2046954982096514,0.4761504309987698,0.11787955347618428,0.8725621474784989,normal
2024-01-01 00:00:01.680,-0.2242859103052599,-0.010936366822893681,1.222240265625597,0.14723452155065817,-0.8811852018600933,0.22717767274277592,normal
2024-01-01 00:00:01.690,0.03782619168192863,0.028955732679437674,2.2247842498641583,0.15520765908662534,0.8965165655167368,0.3613647553257334,normal
2024-01-01 00:00:01.700,-0.14026387801907272,0.07726586210896354,3.554813468350527,0.2028884141948798,-0.12793808547853236,0.07929138895874721,normal
2024-01-01 00:00:01.710,0.18555622534888278,0.2342302410537902,4.680967594411241,-0.7966983800017211,0.7127100042685853,-0.6151458984313563,normal
2024-01-01 00:00:01.720,0.24572271290398295,0.4093637157396053,5.578705446292272,0.583194674921489,0.743551169010605,-0.2778833721102865,normal
2024-01-01 00:00:01.730,0.09260770950255934,-0.3569099807370703,6.369920248233245,0.6368482971041429,-0.2841546505314601,0.12081634739505753,normal
2024-01-01 00:00:01.740,0.09485044329476584,-0.49054908088827404,7.300775256109515,0.4684747950868262,-0.258159067455147,0.07143554516373833,normal
2024-01-01 00:00:01.750,0.027884005484989944,0.14819063135907568,7.710219920758253,0.08416430899429679,-0.8225616803465224,-0.0543227706346209,normal
2024-01-01 00:00:01.760,-0.1343393678886614,0.20212786176132166,8.71699667556591,-1.245424869159596,0.14796411724092084,0.13403990917231912,normal
2024-01-01 00:00:01.770,-0.04935037926983126,0.4117092974195865,9.240879590134181,-0.44378315068232055,-0.9503943869540649,0.643744661978368,normal
2024-01-01 00:00:01.780,-0.14869381899214348,0.2291263953660605,9.5777517699352,0.007905888817111234,0.9198149229955255,-0.29460194953032603,normal
2024-01-01 00:00:01.790,0.1163961402437377,0.5140322058363547,9.758768796997689,-0.4167110700044461,0.3980533082568249,-0.13801898947739405,normal
2024-01-01 00:00:01.800,0.00423402355259176,0.14740999793443,10.046216792038283,0.26431273305027214,0.328781240940838,-0.72230497668189,normal
2024-01-01 00:00:01.810,0.17438735958265508,-0.19766928237047313,9.571454141672536,0.4271863510085408,-0.08627953071075868,-0.20911566018161798,normal
2024-01-01 00:00:01.820,-0.39859449347943005,0.2951747093359266,9.510691563206105,-0.14311703262617623,0.010507963334494774,0.367337040568382,normal
2024-01-01 00:00:01.830,0.26633367852146145,-0.27492561694409307,9.43159447687746,-0.8528088313285868,-0.2540576615547452,0.36227906968211004,normal
2024-01-01 00:00:01.840,-0.22880887105522402,-0.21305321496956647,9.065924860859651,-0.9949980819644886,-1.5748311374973987,-0.7173562081391109,normal
2024-01-01 00:00:01.850,-0.22028465588107993,0.11632007004013656,8.536556520689754,-0.4716125402933375,-0.2353911881273718,-0.1585240214594341,normal
2024-01-01 00:00:01.860,-0.05923289545852141,-0.08335317200053191,8.076934927958984,0.5059748693298122,-0.2654965101866459,-0.5589947444546268,normal
2024-01-01 00:00:01.870,-0.1690153763205797,0.2746433301060001,7.260014504145691,0.8241149698637407,0.4821203858344747,-0.11889041055956057,normal
2024-01-01 00:00:01.880,0.08733755864948715,-0.1188954499849724,6.77233364306592,0.007399820287468867,-0.6863153070478479,-0.10437312227147844,normal
2024-01-01 00:00:01.890,-0.17224943293951225,0.5438169668992829,5.667099307756285,0.3963244653344887,0.12185386614008782,-0.4404434748010436,normal
2024-01-01 00:00:01.900,-0.3208432651556777,-0.3139780938536853,4.356005165194403,0.6218978826616937,0.3548868764913329,0.24116277999320754,normal
2024-01-01 00:00:01.910,-0.253740842513704,0.2063089677481557,3.6516531933108527,0.5623512342550592,0.2857531999435763,-0.1328552648096786,normal
2024-01-01 00:00:01.920,0.3935949975802537,-0.14549706001913487,2.5589602919565335,-0.4315419028499268,-0.5559412295707672,0.3167494224267681,normal
2024-01-01 00:00:01.930,0.013277498591182303,0.419952344085696,1.363089917125997,-1.029235627737949,-0.28010706716071937,0.6097627824660845,normal
2024-01-01 00:00:01.940,-0.35025908548338297,-0.17873569754691415,0.6286709291127034,-0.18605065419397457,-0.6353297972403933,-0.6497637088033067,normal
2024-01-01 00:00:01.950,0.0025132209532262293,0.2250032959613081,0.4550909815860856,-0.17506741866351888,-0.3038753993650715,0.26436202761168925,normal
2024-01-01 00:00:01.960,-0.46678392441162264,-0.958428959961435,1.4224503911726334,-0.8632836018947394,0.12051070043682732,-0.19364077181243922,normal
2024-01-01 00:00:01.970,0.5368699673916925,-0.226885794039465,2.72233013807168,0.39003649890838177,-0.3237210388949115,0.13841779036718244,normal
2024-01-01 00:00:01.980,-0.4573434480872933,0.4932068925610761,4.107349927633612,0.5719163316857855,-0.014173245788267713,-0.45579500530972206,normal
2024-01-01 00:00:01.990,0.14362581139367056,0.053855134949303725,4.8303730461945475,-0.0739189245662144,-0.013559583437881113,0.3617646895782076,normal
2024-01-01 00:00:02.000,0.16308769929426817,0.021713395462239892,6.045487398140575,-0.9714872530809342,0.4138837627458125,-0.542818858617229,normal
2024-01-01 00:00:02.010,-0.4350023261521588,0.2636166842213675,6.717495287789887,0.5272349590260246,0.3106278592081777,-0.38693779988653776,normal
2024-01-01 00:00:02.020,0.09008295552548654,0.7225934427150514,7.672345519954816,-1.0585479715475923,0.32912543658949056,0.058259910456022225,normal
2024-01-01 00:00:02.030,0.29915161204972784,-0.3341481118352961,8.174628227757779,-0.09848308531728406,0.4859856510883242,0.167977246590087,normal
2024-01-01 00:00:02.040,0.14027258572855658,-0.026988719755756098,8.739912034626908,0.5692078903982917,-0.16827517337019088,0.5389295059276216,normal
2024-01-01 00:00:02.050,0.07830488222500559,-0.1408873685997293,8.658954731022991,-0.14071281089876084,0.5491477693030888,0.6098289495097354,normal
2024-01-01 00:00:02.060,0.2847290044383014,0.20966300576922697,9.24797404827465,0.6279312922443451,0.08891445088692361,0.25368884774019773,normal
2024-01-01 00:00:02.070,0.0482713646665987,-0.21495576334619676,9.4740639679437,0.274839246181837,0.6730594251292833,0.022744305895203997,normal
2024-01-01 00:00:02.080,0.10092758642311682,-0.4731000504043609,9.744708416294987,0.6367975723820836,0.13515068933941013,-0.2390575289871389,normal
2024-01-01 00:00:02.090,-0.0380134639451795,-0.4615828732010864,9.91597690773669,0.9899833302208116,0.7500156135228901,0.3028330381178892,normal
2024-01-01 00:00:02.100,0.18954171780464274,0.19732536660917946,9.735774853036377,0.5759870229741185,0.11278100326820491,-0.9772793941034147,normal
2024-01-01 00:00:02.110,-0.28241524417120983,0.06161074102634128,9.445902745871457,-0.02599635298056263,-0.776707882020341,-0.6875025097822994,normal
2024-01-01 00:00:02.120,0.23752897766226697,0.2572966369152851,8.668800526114323,0.1007225497956389,-0.28637150850974596,0.0702460902692644,normal
2024-01-01 00:00:02.130,-0.15159046013655425,-0.4842501479036462,8.303688088807318,-0.41719016089938843,0.14191498229354163,0.11951715648174249,normal
2024-01-01 00:00:02.140,-0.3271960119182538,-0.2734040823049702,7.817633439486859,0.053815582545344916,0.07225509662576703,0.30206007054415557,normal
2024-01-01 00:00:02.150,0.10957468673159079,-0.16573215083452877,7.2127630258094495,-0.5957176333010313,0.24191075275620072,-0.5573011359692918,normal
2024-01-01 00:00:02.160,0.507886665457093,0.2547965803123926,6.354023324774738,-0.08355263166488743,-0.2220458707652741,0.5018047115837655,normal
2024-01-01 00:00:02.170,0.288503463477221,0.1329664197190474,5.306971926512509,-0.8448085186875979,-0.2426250726613371,-0.24434800000820717,normal
2024-01-01 00:00:02.180,-0.15469494828080005,-0.05275315397900491,4.265409133277735,1.0889519698388423,-0.9747946538058234,-0.03183637072376531,normal
2024-01-01 00:00:02.190,0.20941790159958568,-0.3042970036107465,3.6290428727421884,0.31781821126047044,0.524666050934725,0.11570379761724667,normal
2024-01-01 00:00:02.200,-0.1362627359164107,0.05626233386581986,2.268490646116909,0.2113472966917418,0.5668284359798572,0.09857629140091276,normal
2024-01-01 00:00:02.210,-0.03720583684089432,-0.1443442328171903,1.3079321952217644,0.30285877264116573,0.5161479587054916,-0.3358075949996157,normal
2024-01-01 00:00:02.220,0.026858547965122975,0.26709773024178496,0.2300817743696716,-0.6993519865882692,-1.1267019173463944,0.1420221256399002,normal
2024-01-01 00:00:02.230,-0.6951654650701875,0.5257437675877318,0.9152864032182186,0.06850450807380722,-0.39602293072971523,-0.5551581704063249,normal
2024-01-01 00:00:02.240,0.057484429848745,0.03542087272759742,1.8261308835478514,-0.31092439452828946,-0.3487677216280816,0.030458808930922367,normal
2024-01-01 00:00:02.250,-0.30888275664540177,-0.33832030836801635,2.829812333307577,0.09772607830266901,-0.03774085624406353,0.3318507654977857,normal
2024-01-01 00:00:02.260,-0.20921958403657306,0.7178051591563679,4.017399419936671,0.5018932698326546,-0.6784200720278243,0.39154799277891056,normal
2024-01-01 00:00:02.270,-0.4423171232162155,0.19160100975775016,4.894707708386951,-0.19985541149717492,1.0685341118793954,0.0906522175582118,normal
2024-01-01 00:00:02.280,-0.4549674654438611,0.16214977196135008,5.969358569539366,-0.49319322528800524,0.47252419404729906,-0.6567448293800224,normal
2024-01-01 00:00:02.290,-0.2829793202164324,0.0351299976686395,6.555418949438474,0.09043686984833575,-0.09291159416649376,0.8433596445031546,normal
2024-01-01 00:00:02.300,0.2476791885895745,0.052663037092331236,7.480405193554664,0.07916199176152593,-0.2748213587907727,0.27793304865822804,normal
2024-01-01 00:00:02.310,0.4998124042390726,0.02891398589199752,8.004811502255603,0.14177614520798013,-1.005814090773426,0.39608129906977335,normal
2024-01-01 00:00:02.320,-0.007561531055855846,0.07993802652527343,9.082948558066633,0.0693679032402349,0.5408385572332582,-0.5261194048453983,normal
2024-01-01 00:00:02.330,0.3275372800689936,-0.45087035696027017,8.915321534519975,0.7102824928125517,0.14624326748597508,0.07918657481522369,normal
2024-01-01 00:00:02.340,-0.07919419406360458,-0.21386434894746056,9.43454065476035,0.1590587724101979,0.1656018987989598,0.6078168665173761,normal
2024-01-01 00:00:02.350,-0.5735918474378281,-0.025688694442814856,9.665920525022452,0.2513496126824937,0.5141138178148783,-0.21150513107805044,normal
2024-01-01 00:00:02.360,0.04497498480642907,0.04618800505766039,9.705723858496592,-0.27794393960381153,-0.5910156179415911,0.6721934927974075,normal
2024-01-01 00:00:02.370,0.13369447894277145,0.06097395073779015,9.546960079716776,-0.3797397777015212,-1.372428434185001,-0.2799294400554584,normal
2024-01-01 00:00:02.380,-0.12858496642727477,0.13159234296204653,9.423318664357733,0.21812816614806624,1.2509427183755648,0.4819712537198642,normal
2024-01-01 00:00:02.390,0.09066727026387687,-0.5475789874718334,9.246273023680857,-0.0767098609519485,-0.3201462365897113,0.3332014742217327,normal
2024-01-01 00:00:02.400,0.1717668742827962,-0.2895771291714194,9.08900258904405,-1.0120505811373015,0.3748733685677226,0.4101753061422461,normal
2024-01-01 00:00:02.410,-0.2590222702901088,-0.19947487059780253,8.535205900921982,0.28327525669090636,-0.8431913892476374,0.1565395184943157,normal
2024-01-01 00:00:02.420,-0.4430502292692908,0.042062677165970314,7.980817283439093,-0.07071801932705143,0.3325697260319111,0.15473439924037097,normal
2024-01-01 00:00:02.430,-0.06637624960260365,-0.055913549169412054,6.894741485470265,0.3106823938652947,0.988998810564315,-0.12398712538023689,normal
2024-01-01 00:00:02.440,-0.06331816208111482,0.5990363909488766,6.182458750729628,0.23030704257969684,0.2258132381663787,-0.6947045080050694,normal
2024-01-01 00:00:02.450,-0.1057989641566248,-0.11254463144379255,5.45711268720562,-0.0035263830614565422,-0.8230352349873508,0.0338257825719417,normal
2024-01-01 00:00:02.460,0.2961740258404098,-0.07124548003214651,4.3747252471037905,-0.5953218686989097,-0.38416804006982924,0.08569289809377136,normal
2024-01-01 00:00:02.470,0.5176766368228314,-0.4650304778884978,3.3034865154787116,-0.05143165364554239,-1.0495329429548927,0.47467324491965557,normal
2024-01-01 00:00:02.480,-0.12499410539514276,0.5518882548793956,2.220597816458672,-0.2396998164426207,-0.1570968281612655,-0.41524931023913964,normal
2024-01-01 00:00:02.490,0.20966601094882553,0.026874806949461115,1.2432824477912083,0.07258306673339703,0.5128785069294868,-0.35030991458109617,normal
2024-01-01 00:00:02.500,0.2822793338780807,-0.03234547775333711,-0.07660624136444287,0.3278062209076328,0.35556928646268976,-0.04921824548664598,normal
2024-01-01 00:00:02.510,0.21394692612701444,-0.19218817114226036,1.16077834309184,0.13421438060237129,-0.28841408664139284,-0.09536587546541239,normal
2024-01-01 00:00:02.520,0.31424588613891086,0.02845774760714246,2.081139263980053,-0.5956456293916135,0.1076478029277964,-0.5782665492767491,normal
2024-01-01 00:00:02.530,-0.11677319100980571,-0.10327951724766113,3.386560828341757,-0.8414440313260204,-0.03308166209445986,0.16908082940670602,normal
2024-01-01 00:00:02.540,0.22194190785399415,0.36871220570263036,4.379878932810649,0.2607275322143644,-0.8327583442235903,0.7437123767553393,normal
2024-01-01 00:00:02.550,0.6073445807578467,-0.2408961878001191,5.2582016899936885,-0.9895113319102204,-0.5451057595463775,0.18167735525108067,normal
2024-01-01 00:00:02.560,0.24109966781401782,-0.12812549231453776,5.957364168938285,0.30480831125615054,0.17225311647925926,0.035642352359967794,normal
2024-01-01 00:00:02.570,-0.1859681006750881,-0.15762757030856908,6.965069851965427,0.21529532892485556,1.0526181609076628,0.38841634707171624,normal
2024-01-01 00:00:02.580,0.18231374818036328,0.18035823473490661,7.964547731290504,-0.5648190537204204,-0.0443910329037582,0.47441745293925625,normal
2024-01-01 00:00:02.590,0.3787140875116483,0.10274352129831042,8.265199948245819,-0.36351355255564083,0.029487333707245763,0.49254643020637345,normal
2024-01-01 00:00:02.600,0.11069588591688849,0.29967858514636475,8.927324811064642,-0.3289809744354373,-0.7368254283811181,0.3981743331220679,normal
2024-01-01 00:00:02.610,-0.16902020884285707,0.16644633852225457,9.022021954349238,-0.315305831713389,0.34185072701981756,-0.24675951937871776,normal
2024-01-01 00:00:02.620,0.46292417490647303,0.1754328066916631,9.422461385641535,0.06276032879554615,-0.9333422154260022,-0.5130313781048104,normal
2024-01-01 00:00:02.630,-0.3749301139688777,0.02004629577690867,9.75287414549626,-0.8060727590109649,0.173049905728362,-0.29466316668054543,normal
2024-01-01 00:00:02.640,0.15102751399677797,0.2764754995693929,9.944634019102784,0.2365073436760255,0.27753161112914243,0.02857630323550187,normal
2024-01-01 00:00:02.650,-0.00485267234013841,0.1495991295305634,9.85598890805602,-0.32391934651838017,-0.04530743508669634,0.14953912268748962,normal
2024-01-01 00:00:02.660,-0.35809971755325065,0.10399844105033139,9.436125325064333,-0.31023594404381594,-0.40974738793514215,-0.12490275238032984,normal
2024-01-01 00:00:02.670,0.3658349050748846,-0.4795199815653282,9.496108431717591,0.3710936063359044,-0.45583998001426795,0.1163914994862092,normal
2024-01-01 00:00:02.680,0.1043662781104037,-0.13710774176274293,8.338125706368311,0.1739411509281308,0.7699645907170404,-0.46047579680448575,normal
2024-01-01 00:00:02.690,-0.3500394531297207,-0.20395114959160013,7.981114937886083,-0.9920388735208819,0.4855262296912143,-0.4098987490429725,normal
2024-01-01 00:00:02.700,0.18051850696855296,-0.5442402123925185,7.719069497364136,-0.3491201759274764,0.12693991641076938,0.6306972815187174,normal
2024-01-01 00:00:02.710,-0.129480128673402,0.3976172466438698,6.998470860727727,-0.4919216941738665,0.5204212378625378,-0.8205243146445309,normal
2024-01-01 00:00:02.720,-0.5708365506501378,0.4402815893631414,6.225832858466786,0.5982531117842185,-0.27133624336828954,-0.12542137556281155,normal
2024-01-01 00:00:02.730,-0.2066715376199857,0.33067423874913177,4.90761532791682,-0.12916865697077454,-0.017926050905093464,-0.24298260652812045,normal
2024-01-01 00:00:02.740,0.0790654342504847,0.17567176989856356,3.8434373875816137,0.0431174964116035,-0.42533995707808475,-0.3697622575194018,normal
2024-01-01 00:00:02.750,0.19071086588283703,0.45121641126696255,2.798779480894012,0.27893765847711594,-0.43098835789377676,0.1860637393991413,normal
2024-01-01 00:00:02.760,0.04966947153848175,-0.5027791402683853,1.8043947921290853,0.7628539324919086,-0.203899929274606,0.05988907206718863,normal
2024-01-01 00:00:02.770,0.01354950338039713,0.3863096690383561,0.9224311376878244,-0.054687553730494394,0.6196573151628312,0.39596516538961873,normal
2024-01-01 00:00:02.780,0.1409970021429787,-0.608346550249996,0.17876579890055816,0.14964514125654632,-0.42331220640744827,-0.13336039459927695,normal
2024-01-01 00:00:02.790,-0.0632928305895642,0.05001703751782373,1.284062205967404,0.5622854299533688,-0.29108173126225934,0.19738351383296798,normal
2024-01-01 00:00:02.800,0.3530863811826882,0.03743120345058111,2.528569603538482,-0.06399458831008938,-0.043231581311102094,-0.6783674185772147,normal
2024-01-01 00:00:02.810,0.04459249446402987,0.1562284246206366,3.4562590403563687,0.8877078365723439,0.7594738611486792,0.27258886803037935,normal
2024-01-01 00:00:02.820,0.08817646574211754,0.19849834982200723,4.527883941856138,0.4898728730954543,-0.5695905577235106,0.4115434364512617,normal
2024-01-01 00:00:02.830,0.16223969746372377,0.21579722273435273,5.683480424110851,0.25329108205020134,1.6382152314550122,0.27258537542587513,normal
2024-01-01 00:00:02.840,-0.31715065209134335,-0.20993689312840694,6.2318358294389835,0.9691828400231154,-0.10824968069420639,-0.1583278090040183,normal
2024-01-01 00:00:02.850,-0.2127680629049278,-0.20296514967650398,7.158701283540772,0.18518571028827666,-0.21586240320732902,0.17566494286229584,normal
2024-01-01 00:00:02.860,0.45857373421194464,-0.2501451386524129,7.737049305591872,1.2535734380887977,0.08065177449091052,-0.260436280700356,normal
2024-01-01 00:00:02.870,0.10059260710829389,0.039370060120108824,8.581282279693724,0.025336020400429368,-0.31896790656564394,-0.3534582272084076,normal
2024-01-01 00:00:02.880,-0.08478482358455355,-0.10293489668932508,8.790491085124907,0.33484713388168974,-0.2214940116801846,-0.015164050962428044,normal
2024-01-01 00:00:02.890,0.10244505864344877,-0.479003829256268,9.215355334849917,0.31095560697829006,-0.5854700306165828,0.24180183476598027,normal
2024-01-01 00:00:02.900,-0.14448667051846503,0.2891727337270932,9.730763945647473,-0.16074649279042438,1.1480047876165091,0.6532931591425837,normal
2024-01-01 00:00:02.910,0.08356988658968839,-0.3436073226671508,9.461776396677935,-0.016046859106526565,-0.6607514676652652,-0.18817467881154692,normal
2024-01-01 00:00:02.920,-0.19976131649701737,-0.14798217891795096,10.077450437781634,0.5591836784642916,0.43941090724871584,-0.04235803204730597,normal
2024-01-01 00:00:02.930,0.08280564520174839,-0.22406060654769913,9.787929442803929,-0.8711133860565841,0.3919365404656779,0.047265309276031786,normal
2024-01-01 00:00:02.940,-0.4733107656957028,-0.22541088248251304,9.435791166000225,0.15223217957526605,-0.13841446360165977,-0.3923963197358935,normal
2024-01-01 00:00:02.950,0.3992759380997046,0.17381705578650414,9.058960714876086,1.2291135165988067,0.43814831639702534,-0.36026968388054403,normal
2024-01-01 00:00:02.960,-0.15388736180909648,-0.2095600310602976,8.727026287076502,-0.15117886280637247,0.5347464867598481,0.6594317143803141,normal
2024-01-01 00:00:02.970,-0.474372359098556,-0.43343087360109406,8.134583083424394,0.33731190057460203,0.42777549245126256,0.5237059204199431,normal
2024-01-01 00:00:02.980,-0.06715250837611596,-0.20042863374373124,7.238882733567116,0.06767367871800711,-0.9283107605944142,0.43899519686903465,normal
2024-01-01 00:00:02.990,-0.1112988584154631,-0.311752139554117,6.64002797137259,0.8569316908825553,0.6076212881106856,-0.24903818663624078,normal
2024-01-01 00:00:03.000,0.045719525580135464,-0.4641864616491209,5.626542653016616,1.673085110045775,0.4706003681141748,0.15813419610508517,normal
2024-01-01 00:00:03.010,-0.3435751826544366,0.2732599427531948,4.747611677132072,-0.49962607846059875,0.11666068385527514,0.3754820081154856,normal
2024-01-01 00:00:03.020,0.11923967993707749,0.345552954027733,3.8295792163568683,-0.314728623645248,-0.3581986122640467,-0.24648710175601243,normal
2024-01-01 00:00:03.030,1.0870703065104015,-0.43573371827995944,2.8015277466709554,0.3746883820353821,-0.18450855527323012,0.2107689548282614,normal
2024-01-01 00:00:03.040,-0.383600316222987,0.4699031436938355,1.6641386511201202,1.0268750722397548,-1.434003869899294,-0.21190691921408247,normal
2024-01-01 00:00:03.050,0.10131467270978566,0.5493606212144788,0.5955213327253448,-1.1331164373191527,0.603886759778172,0.2966230964312952,normal
2024-01-01 00:00:03.060,-0.09321565609512746,-0.4191277875787416,0.423403089375764,-0.14457661469287572,-1.031240037821842,0.05286005316262433,normal
2024-01-01 00:00:03.070,0.05778248844432412,0.12432165567596173,1.5413679394960849,-0.03160595084178722,0.7080503475107461,-0.0981327897743972,normal
2024-01-01 00:00:03.080,-0.5435427113511789,-0.08581602864727396,2.9122661949243174,0.07465758494224795,0.17919498196346523,-0.17292598000765924,normal
2024-01-01 00:00:03.090,-0.34530281639350363,0.2479162443126488,3.940233184588142,0.9527284490283423,0.8235020629577223,-0.7968300685121303,normal
2024-01-01 00:00:03.100,0.13789786056080255,-0.8861641149072477,4.583362875030584,-0.014239923295205731,-0.66583143448532,-0.16544712264473252,normal
2024-01-01 00:00:03.110,-0.011525405818566778,0.18554798374242862,5.326355645297537,0.47392188782172684,-0.4502942632926842,-0.3499180160893398,normal
2024-01-01 00:00:03.120,0.4905714541772945,-0.11266447751102038,6.653933660276743,-0.748957781841971,-0.09172182509681556,0.16042979998629953,normal
2024-01-01 00:00:03.130,-0.21143921768140997,0.14151052670536426,7.599446031920095,0.19895437960297727,-1.3178305619586486,-0.09430040691307465,normal
2024-01-01 00:00:03.140,0.0523498581469184,0.26433503074649123,7.97014265747637,-0.22628235491773988,-0.731881633632969,-0.6880488599664011,normal
2024-01-01 00:00:03.150,0.8739364357613484,-0.712837279118301,8.652766995419057,0.9897847629786676,0.28094960673103236,0.2136164285219303,normal
2024-01-01 00:00:03.160,-0.22966843092537959,-0.01709517996540184,9.07705610045186,0.3211995104514307,1.252878791198608,-0.23503357436390082,normal
2024-01-01 00:00:03.170,-0.2711500480427872,-0.0029276278399664193,9.487475380156095,-0.3911380575272563,-0.7143882685329129,-0.07144308904659841,normal
2024-01-01 00:00:03.180,-0.01053902546852644,0.17915339819389134,9.599929213682577,-0.021177909102775533,0.4761130843964745,0.11107634163423522,normal
2024-01-01 00:00:03.190,-0.013368803650697682,0.3402701703852492,9.79396680248707,-0.31597867966845866,-0.39925807925140305,-0.47035048254036915,normal
2024-01-01 00:00:03.200,0.2532501840367604,0.2259272789055368,9.753443698438756,-0.39254273490487274,0.06295206944944329,-0.05889029583856977,normal
2024-01-01 00:00:03.210,0.03887276183927543,-0.23393941885214192,9.614874180787712,-0.06769864035942602,0.4154115715218989,-0.3617575733241703,normal
2024-01-01 00:00:03.220,-0.22702179367459058,0.21146715716989267,9.428988670344935,0.08448139629245592,-0.14444367344626355,0.4814128374281238,normal
2024-01-01 00:00:03.230,0.06342646560227296,-0.22943552322878144,8.814344582922706,-0.6741100749965526,-0.03390386522904103,-0.14857565785110224,normal
2024-01-01 00:00:03.240,0.7915790257736113,0.22993161617538127,8.706872695894916,-0.8661008033880196,-0.17185108429113563,-0.5085397208700837,normal
2024-01-01 00:00:03.250,0.38153210221230677,-0.05389976472796954,7.951800420135868,0.37317558807262613,-0.051910833380160074,0.7364323810367431,normal
2024-01-01 00:00:03.260,-0.834650735286967,-0.055560018182134165,7.266363145817333,0.19617025745852673,0.18185763895719814,0.034446446800532195,normal
2024-01-01 00:00:03.270,-0.04260507407829135,0.03879694931585053,6.332842395941789,0.04247117186979469,0.38356944208951727,-0.007991904502359365,normal
2024-01-01 00:00:03.280,-0.2625271565852897,-0.4808026524732412,5.2544909421665285,0.4290012265676387,-0.26035896334283387,0.47650337638447715,normal
2024-01-01 00:00:03.290,0.18667875432154526,-0.09768570401515105,4.600214841059599,-0.2478442360242266,-0.2972655249243349,-0.6274950851740094,normal
2024-01-01 00:00:03.300,-0.05197904418723008,-0.36094309987264517,3.538458654719484,-0.09375087375341454,-0.3110384910612542,-0.18248829517351625,normal
2024-01-01 00:00:03.310,0.5798087243985582,0.2773691551589223,2.185378744735045,0.9183348392597466,-0.538940715455881,-0.04075607610212812,normal
2024-01-01 00:00:03.320,0.279370669085672,0.380635967343864,1.6508823877552667,-0.5328539686633786,0.1395207998829691,-0.46988508198898316,normal
2024-01-01 00:00:03.330,0.2671208677377821,-0.43632015432158083,0.6012074479880152,0.9390833802253509,0.6167845516312878,0.3208310866750823,normal
2024-01-01 00:00:03.340,0.05597131800796556,-0.6764443765299788,0.6926859122935413,0.36076060415052935,0.7099135417844262,0.2164593256878601,normal
2024-01-01 00:00:03.350,-0.012089295992258305,0.07035180316775365,1.9098881075448741,0.41788102413645534,-0.6822592267662745,-0.4025818640169796,normal
2024-01-01 00:00:03.360,0.10205397866235828,-0.17372588967356709,3.1408187170615434,-0.0893488534490123,-0.3586841692303236,-0.07301460351127796,normal
2024-01-01 00:00:03.370,0.3885839374256325,-0.28200563650285804,4.047247174648076,0.5938032113215198,-0.10909099570141807,-0.19929777118236455,normal
2024-01-01 00:00:03.380,0.16031693096183908,0.6858330480021316,4.499494127997723,0.21903588627674056,0.14848950169958539,0.39192638982526196,normal
2024-01-01 00:00:03.390,-0.10533976975129881,-0.12681243143057452,6.053284993827396,-0.5239812407637577,0.7056992134839896,-0.09529784526559738,normal
2024-01-01 00:00:03.400,0.382525397540669,-0.3110485768152164,6.429209543211745,-0.14517084860449161,-0.13486570747810897,0.16185621290468324,normal
2024-01-01 00:00:03.410,0.057633110717012145,-0.08533281836917367,7.40477946991955,-0.23492941775897552,-0.6304605604150039,0.2953516594203463,normal
2024-01-01 00:00:03.420,-0.023284519041487078,0.08448401906900566,8.386441681555171,0.2943138631277379,0.7109094465773053,0.15733430040588597,normal
2024-01-01 00:00:03.430,-0.23741305159860962,0.4716683388309788,8.583147140275877,0.006050576970078922,0.628165960841021,0.29737307434639,normal
2024-01-01 00:00:03.440,-0.16979768293984512,0.09064985711717437,8.9294551692617,-0.05062576167401689,0.04086299309025915,0.04655129618365652,normal
2024-01-01 00:00:03.450,-0.19081403391808918,-0.3781772613183695,9.47798254166785,-0.6135646553546988,-0.1809555802130016,-0.4563863458287804,normal
2024-01-01 00:00:03.460,-0.837707147926167,-0.14932159854677532,9.664609579252414,0.3054343934769913,-0.7128651707673017,0.3283188582901445,normal
2024-01-01 00:00:03.470,0.30505386011944896,0.5516753087029758,9.471284738839813,-0.17576290821350252,-0.21817373719777447,-0.27027020978772087,normal
2024-01-01 00:00:03.480,0.16994327082834326,-0.52477154853028,9.98970008697708,-0.2980281475645617,-0.8617287598180078,0.150375708404565,normal
2024-01-01 00:00:03.490,-0.06428117747372938,-0.01597876685636212,9.598521704953733,-0.9725024505590921,-0.1335880076653866,-0.36121680330717554,normal
2024-01-01 00:00:03.500,0.3137951215227609,0.3525587797366433,9.29585356036052,0.23384192184989602,-0.05859045582841029,-0.3386578924655388,normal
2024-01-01 00:00:03.510,0.1313963338600176,0.07935905021921318,8.927878553724828,-0.18797060326770704,0.23272233556623081,0.03987728906169993,normal
2024-01-01 00:00:03.520,0.11147024369088022,-0.06559333508894696,8.41930703480934,-0.7513296713173649,0.585346460308493,-0.027879362896212987,normal
2024-01-01 00:00:03.530,-0.742429064873599,-0.26725628816271085,7.984785748792904,0.27353034606968624,-0.5151262025092462,-0.4135330599652331,normal
2024-01-01 00:00:03.540,-0.06990477588318565,0.047124392737500735,7.024559744892356,-0.36838899751777215,-0.045660480713481784,0.395060934327985,normal
2024-01-01 00:00:03.550,0.1596567377301759,0.15662817442849378,6.1475336896208885,0.4170535582624278,0.1295743643203969,0.22493336713453296,normal
2024-01-01 00:00:03.560,0.4829060495364711,0.06619507071260239,5.421141769355202,-0.35469065459968535,0.7549488906705484,-0.4005385888393662,normal
2024-01-01 00:00:03.570,0.552088464485249,0.30764855379605693,4.431780538975348,0.7789807185888585,-0.4477759453980177,0.6476903251889222,normal
2024-01-01 00:00:03.580,0.427751473716082,0.06101345933488644,3.474749791884409,0.19970056671726594,0.4662234957340555,0.006743375427853001,normal
2024-01-01 00:00:03.590,-0.3484828555648505,0.3886584365340164,2.176637861217555,-0.8719007411868699,0.5293221920147881,-0.07121486770219174,normal
2024-01-01 00:00:03.600,-0.6593014101261606,0.04275977068960333,1.2915880232562942,0.12185918633805011,-0.1092373267806235,0.1841499703808377,normal
2024-01-01 00:00:03.610,0.17114087241207965,0.27421833142254876,0.20155206560880196,-1.7444465275660364,0.9224911905482679,0.07601373344466875,normal
2024-01-01 00:00:03.620,0.008284750605192922,-0.09703578886447252,0.8179362610546302,-0.5038497685035185,-0.571478437876459,0.02629459857244993,normal
2024-01-01 00:00:03.630,0.288765976305734,0.5250228849446612,2.1507128279502123,0.3911271969450857,0.30723820706186916,0.5022775241187719,normal
2024-01-01 00:00:03.640,-0.03776530908121301,0.37879055421690055,3.134455701420922,-0.40905903581652536,-0.18149999472073453,0.4130942881610463,normal
2024-01-01 00:00:03.650,0.06592648905704994,0.20933952640558337,4.384919178517751,0.10444689875097678,0.06317516443237463,-0.6194923370401749,normal
2024-01-01 00:00:03.660,-0.44999670391699104,-0.2960270239825227,5.399077284130576,0.46067214426014075,0.27003544849747535,0.06442569806346399,normal
2024-01-01 00:00:03.670,0.13440289654769233,0.05872144512541039,6.101882884867442,0.30690478826017303,1.2179523469157345,-0.037565438709272654,normal
2024-01-01 00:00:03.680,-0.13346953586225604,-0.8821267384525515,6.710946628074381,0.7151806645001252,-0.9020402648734139,-0.40038142738648885,normal
2024-01-01 00:00:03.690,0.10499560731127529,-0.10739624995616502,7.621594382538192,-0.5179682151202599,0.9997037291278634,0.1761270116534463,normal
2024-01-01 00:00:03.700,0.13782179806264014,0.051258391071777924,8.138186862265634,-0.13268646651413615,-0.6624828492193228,0.3259268124537455,normal
2024-01-01 00:00:03.710,-0.03516664346426877,-0.2587212756291214,8.68903588881091,0.15410961618763605,-1.0051940408003273,-0.8034924901982732,normal
2024-01-01 00:00:03.720,0.09504033663417993,0.05017124121544003,9.432685072433006,0.33077022372727516,0.2284564167504974,0.2474429959731568,normal
2024-01-01 00:00:03.730,-0.004082109159990638,0.20247815658893642,9.635384526480037,-0.7154075566512605,-0.042882241160270104,-0.19810298426245443,normal
2024-01-01 00:00:03.740,0.22775985033855267,0.5469613192902987,9.690124447480553,-0.8029123756108778,0.5350350534564281,-0.04449726178278659,normal
2024-01-01 00:00:03.750,0.15052288453378967,0.007893231798335246,9.637407821810674,-0.9452701040443531,-0.25755474892693253,0.4109283314127163,normal
2024-01-01 00:00:03.760,-0.16416491071116207,-0.46839401624916743,9.767591778412992,-0.19478166841030523,0.274789852676783,-0.090795150011063,normal
2024-01-01 00:00:03.770,-0.17637056433078044,-0.7032308920447091,9.754648647419042,0.2430353061672188,-0.9365011539164936,0.060785913044611936,normal
2024-01-01 00:00:03.780,0.5231216333971833,-0.04621601774867115,9.330250595954837,-0.21383840966786238,-0.38638937258162553,-0.05895064234625118,normal
2024-01-01 00:00:03.790,-0.030478648594838814,0.27416185178116537,8.847603252549272,-0.04694078304068527,-0.7020599789555819,0.16520994156921637,normal
2024-01-01 00:00:03.800,0.2975423287696507,0.34122152953286233,8.310723431985426,0.4467860796651973,-0.8862443844303691,0.4538372851163954,normal
2024-01-01 00:00:03.810,0.11801571908512258,0.03351847129595413,7.8345520477507,-1.013861908241768,-0.12387067325212443,-0.3642003034387275,normal
2024-01-01 00:00:03.820,-0.1692337471488389,-0.1948742390929797,7.015965684702083,-0.39460174558952865,1.2687833978136869,0.1184911123720805,normal
2024-01-01 00:00:03.830,-0.2246921390863079,-0.20782485656253075,6.0807755741653855,-0.9505917601954559,-0.2958687619352789,-0.4396890898059381,normal
2024-01-01 00:00:03.840,0.03603770684830145,-0.038124630230080454,4.8267512923528395,0.5672549913960395,0.5169894400126657,-0.00761787671407621,normal
2024-01-01 00:00:03.850,0.07699632621401757,0.031722483874769246,4.2768513152165815,0.06706182793255473,-0.1882797535721293,-0.4177107143419995,normal
2024-01-01 00:00:03.860,0.18430911583801637,0.18425508285203798,3.1717324302164838,0.6859536891161802,0.693136334213146,0.006827710075586449,normal
2024-01-01 00:00:03.870,-0.38008002825221515,0.040719519711455356,2.068725363734116,-1.3232822409917746,-0.6620079311005039,-0.4111110521759197,normal
2024-01-01 00:00:03.880,-0.17840498472783176,0.6086063292983199,1.1525446868219755,-0.9011510702273849,0.7471693288784046,-0.0625771416627869,normal
2024-01-01 00:00:03.890,-0.02845986102427662,0.052085413106078345,-0.0016899401589264978,-0.46561203295782977,0.0882690325178297,0.3231995904894178,normal
2024-01-01 00:00:03.900,0.4802248380442786,0.1536503936084146,1.2712958373966625,0.05836746148963955,-0.728855700897216,0.6604523973787295,normal
2024-01-01 00:00:03.910,-0.7080535711878351,0.3196119371167842,2.335217517589946,0.08795618091486207,-0.6572264391010606,-0.5631801836447756,normal
2024-01-01 00:00:03.920,0.1317334944323771,0.2905073381679061,3.1564766402384112,0.29731528882564445,0.5295803815793672,0.6090836854249398,normal
2024-01-01 00:00:03.930,-0.1620137575840269,-0.18878266648345635,4.362557519115781,0.2530821085638345,0.18295552122892958,0.10121595298044427,normal
2024-01-01 00:00:03.940,0.1294132028529496,-0.48186603564262714,5.375083402346673,-0.7236897695690026,-0.742991814802514,-0.71628224893742,normal
2024-01-01 00:00:03.950,-0.14759367188405959,-0.3857773431475012,6.414903369568769,-0.5319374651805029,-0.8284133272509682,0.12324232732785217,normal
2024-01-01 00:00:03.960,0.10936531907081536,0.11733266284881773,7.144296398680239,-0.514514285468038,-0.4241782260734275,0.284436509590906,normal
2024-01-01 00:00:03.970,0.469391412205975,0.1846790208766426,7.782244170567239,0.6563413104542963,-0.6882780001349611,-0.41825975820768757,normal
2024-01-01 00:00:03.980,0.1062589510371277,0.10987593518105236,8.523427902271981,0.5553743424194143,0.006188958056657482,-0.4088701715115594,normal
2024-01-01 00:00:03.990,0.1300199827433437,0.24461136555794777,8.605348956741375,0.30695175590910245,1.3068585862992521,-0.13196959612152248,normal
2024-01-01 00:00:04.000,0.11185736653046537,0.39694007798681225,9.261033024855179,-0.1572042119383937,0.2585497230338069,0.6119647120990009,normal
2024-01-01 00:00:04.010,-0.22509405615095027,-0.22401393179028029,9.490106888133734,0.1300982592842045,-0.4851616073615248,0.2538520653644078,normal
2024-01-01 00:00:04.020,0.16290535555827654,0.776772201478376,9.84544782697129,0.09846101837509895,0.26909766211664327,0.240515297041815,normal
2024-01-01 00:00:04.030,-0.06250396881929421,0.8084764789927535,10.067196290994362,1.2612857253834011,-0.3152358046967348,-0.6105011296727172,normal
2024-01-01 00:00:04.040,-0.24351409324757284,0.23768703570800812,9.822242010520874,0.41205328381725337,-0.4647950576155247,0.39927015340430794,normal
2024-01-01 00:00:04.050,-0.011564377863487898,-0.04397360465569137,9.647306797255888,-0.4579120115184684,0.2220872822527982,0.3187927335295797,normal
2024-01-01 00:00:04.060,-0.06818654203437906,0.08532242082179384,9.28769925091792,-0.26136744915295174,-1.3333674812512357,-0.17640584669782416,normal
2024-01-01 00:00:04.070,0.2260439385972737,-0.41408509780781816,8.954762629870867,-1.1744784946755678,-0.4062744062167429,0.43637060122430155,normal
2024-01-01 00:00:04.080,-0.012851767499257193,0.016672333142547888,7.975030386942921,0.6360403695421475,1.6714315878345434,0.5292251132714167,normal
2024-01-01 00:00:04.090,-0.15883261724826117,-0.236261221746772,7.549502214962008,-0.6350161282173473,-0.5775706461045946,-0.07648359761061799,normal
2024-01-01 00:00:04.100,0.436791472716492,-0.01970952028765615,6.583358413185156,0.08473233848115266,0.0980996828350001,0.10322481871381456,normal
2024-01-01 00:00:04.110,0.29651632880397727,-0.0871272210394372,5.788641738658252,-0.8063993796524287,0.3794378059043762,0.10870265344115349,normal
2024-01-01 00:00:04.120,0.3809188313802964,0.6303564957539742,5.045719619398752,0.23467193571390996,-0.4920472312118288,-0.018599221287993285,normal
2024-01-01 00:00:04.130,0.18230020860437793,-0.24938942364463973,4.078251773293711,0.21732773941262706,-0.35253875740675356,-0.25670397576784787,normal
2024-01-01 00:00:04.140,-0.03290969833039662,0.10274110774910968,2.8953367619088466,-0.0470907413724426,1.055100084852367,-0.14367321719846884,normal
2024-01-01 00:00:04.150,-0.1257280211694945,-0.11242825361626065,2.0022287359802666,-0.40549765362869983,0.021735035016122402,0.17297771690276553,normal
2024-01-01 00:00:04.160,-0.08380199851564883,0.4862983467584752,0.7351511396880764,1.3935648880111076,-0.365099973721681,-0.37556742405681587,normal
2024-01-01 00:00:04.170,0.2843071829436963,0.3293197318126868,0.349399560416778,0.36920501881488105,-0.7002837296153563,-0.18838513874765905,normal
2024-01-01 00:00:04.180,0.03357098407342247,-0.4494934204083896,1.4770937076649941,0.176116386439287,0.8084796175902029,0.10619148001457046,normal
2024-01-01 00:00:04.190,-0.4448529433103648,-0.28627759781776496,2.568422004565704,-0.08046834589676803,0.6631349776222718,0.4802462898997554,normal
2024-01-01 00:00:04.200,-0.011724839315106947,0.09352287369764717,3.7840267493703172,0.030434621853561293,-0.025462332135787084,-0.25953049719868865,normal
2024-01-01 00:00:04.210,-0.4248312618603609,-0.17654097716381284,4.776805202157805,0.4210599557646924,0.5989257479966401,-0.3877186809910626,normal
2024-01-01 00:00:04.220,0.04975975021870633,0.14492899071833878,5.503740524655273,0.06608627376893145,-0.03929342259156613,-0.07996602656173049,normal
2024-01-01 00:00:04.230,-0.3611458902634673,0.034165508926924826,6.412007737612693,0.4794038385755835,-0.18714302916231565,-0.04307360776043226,normal
2024-01-01 00:00:04.240,-0.3791808384642769,-0.3149629899649027,7.161103412183599,-0.25545848664250975,-0.551480222873027,0.1910833017401343,normal
2024-01-01 00:00:04.250,0.035573836176508125,-0.0802663598325813,8.016805261106226,0.30241135877634107,0.48513711839714785,-0.23160394256256367,normal
2024-01-01 00:00:04.260,-0.02346429774261421,0.15337277697633062,8.587880567253189,0.020381137718302206,-0.27651584875983715,-0.42091981071347057,normal
2024-01-01 00:00:04.270,-0.4985285099368826,-0.011920124397589958,9.09954018083246,0.2740787996286621,-0.10555175350993792,-0.8296020558174168,normal
2024-01-01 00:00:04.280,0.22446711542140732,0.051794031720720744,9.236292961435998,0.02424782402520754,0.44267161331513943,0.4392741531638131,normal
2024-01-01 00:00:04.290,0.6489290065452762,0.12234315029407185,9.700118348769124,-0.23941344589444022,0.7263825958513483,0.3480512839408969,normal
2024-01-01 00:00:04.300,-0.44441272328731907,-0.02649904481034962,9.698675541573165,-0.043030232590849836,-1.0124078536700365,0.3488246817921289,normal
2024-01-01 00:00:04.310,0.5459549156333708,0.4157916357711424,9.64013782227771,0.03392194443051344,0.10704623155978393,-0.3554385477506367,normal
2024-01-01 00:00:04.320,-0.20633682726846217,-0.37056797816646153,9.684606301631073,0.09336115867043757,0.3828755477843799,0.49675309367561704,normal
2024-01-01 00:00:04.330,-0.1482271857494325,0.15187408645269734,9.386444588556227,-0.7824147976384477,0.3222336192454472,-0.20407424026189724,normal
2024-01-01 00:00:04.340,-0.05366616628132267,-0.14596743348683122,9.147725585634586,0.32522335865598134,-1.22981535854325,0.2039290705610858,normal
2024-01-01 00:00:04.350,-0.43358316619960324,0.13184582196119574,8.666278201485666,-0.16505762366434384,0.2960833655471547,-0.6566259063998131,normal
2024-01-01 00:00:04.360,0.38973816433147895,0.26436763731872037,8.003054747115492,0.478759169944076,-0.42253472959496213,0.5507920138671418,normal
2024-01-01 00:00:04.370,0.14780808853120053,0.2022940969666766,7.396134803097272,0.25750892290516486,0.5495173397838562,0.3541390850813327,normal
2024-01-01 00:00:04.380,-0.2254362605439506,0.21363234450054444,6.577340238790897,-0.42089664683309047,0.9064655352696654,-0.18045461410103927,normal
2024-01-01 00:00:04.390,-0.08312314638650917,0.23955840827421082,5.655816959258222,-0.5048216876053536,-0.09991178320177156,-0.2790042515817108,normal
2024-01-01 00:00:04.400,-0.45490783138983304,0.17079018317613295,4.60413578334072,0.2843932682583386,0.4337670205134769,0.4352765918630026,normal
2024-01-01 00:00:04.410,-0.10432732205687129,-0.05892657447820184,3.8722721581359494,-0.11829869031576896,-0.3855938919406302,0.5836241892857577,normal
2024-01-01 00:00:04.420,0.2808639454319932,0.23138169951991405,2.814779976137717,-0.04234637388225344,0.4579449192312907,0.14835187693341217,normal
2024-01-01 00:00:04.430,-0.5145869316429121,0.3035456322192496,1.7505972218876735,-0.09868400212501235,0.44092222657515623,0.182451359152943,normal
2024-01-01 00:00:04.440,-0.13087209868536376,0.27152224306731576,0.346132803879734,0.5571148158701311,-0.07192378468044283,-0.21105359910741503,normal
2024-01-01 00:00:04.450,0.04403752069434353,0.09516275850380129,0.46924678684219967,0.08797456892464675,0.09794264835243921,-0.5871419292031061,normal
2024-01-01 00:00:04.460,0.3144718037543754,0.09521089120186836,1.7481846920129267,-0.33529302790071464,-0.6843674634425071,0.031879358151423086,normal
2024-01-01 00:00:04.470,0.404799165822172,-0.5877174820407333,2.9252806161527043,-0.39560436511158864,-0.26590854047978807,-0.043375880290027806,normal
2024-01-01 00:00:04.480,-0.13717588675100378,-0.2359661316342308,3.8442414638755156,-0.3240913641226458,-1.5405638178873227,-0.24046672303962507,normal
2024-01-01 00:00:04.490,-0.22209206297275247,-0.05033972112795159,5.000450536390785,0.25720582426917427,0.2815340362587359,0.27499978270934317,normal
2024-01-01 00:00:04.500,0.13511989833377666,0.31096357659397506,5.615249519248756,-0.9733428713710021,-0.009203086616079154,0.7821302125946433,normal
2024-01-01 00:00:04.510,-0.10897643757649826,0.3697141035837689,6.710173156454308,-0.31933896842029996,-1.4155474979955003,-0.0675050868342398,normal
2024-01-01 00:00:04.520,-0.09300581201804536,0.052085104265477,7.1132554871258336,-0.3270897976553926,-0.52080788587856,0.21248424308139854,normal
2024-01-01 00:00:04.530,0.3240551036829036,-0.3294044285462038,7.958793138262043,0.30672278540124687,-0.31982294029339914,0.1821802053869122,normal
2024-01-01 00:00:04.540,0.5069213611005822,0.15519970460770435,8.496490210999108,-0.5205889841361652,0.8470278035400357,-0.1794939266577647,normal
2024-01-01 00:00:04.550,0.07976027134029283,0.30571891391996886,9.212032199069668,-0.1252519116244196,-0.1146364266095338,0.0970428848981848,normal
2024-01-01 00:00:04.560,-0.057664432419316354,0.23856393382078808,9.38093255414532,-0.1560643002041854,0.20685604757769516,-0.49612246473726995,normal
2024-01-01 00:00:04.570,0.17137858949288656,-0.20160644266586866,9.700024331841167,0.015972518714169104,0.144059443498852,-0.30745865802615463,normal
2024-01-01 00:00:04.580,-0.5662547488288044,-0.31627239808229596,9.933584483202425,-0.6706890303438551,-0.8621626029749763,-0.14969020005586806,normal
2024-01-01 00:00:04.590,-0.0054747190053115275,-0.2628701566647552,9.691461469899117,0.6314455755024317,0.09041761109003107,0.44853370084599187,normal
2024-01-01 00:00:04.600,-0.31817305363637444,-0.31600733821915566,9.773880839404503,1.522068867903705,0.8197847623775023,0.06443591488844765,normal
2024-01-01 00:00:04.610,0.7168283515920585,0.30903565432322944,9.226506203091843,-0.44598120293057797,0.42938423805912646,-0.11430640264821107,normal
2024-01-01 00:00:04.620,0.21605997824331902,0.10170620889186113,9.174346870470105,0.5379390581418949,-0.8314650110141857,-0.7867642816613067,normal
2024-01-01 00:00:04.630,0.042410954324529467,0.657939448878334,8.329412649659204,0.09408133469400218,-0.6412622950787524,0.08312975877578183,normal
2024-01-01 00:00:04.640,-0.058309388776835974,0.5041626841478978,7.686504803018431,0.5158948334458677,0.3246027734210572,-0.4519152441299567,normal
2024-01-01 00:00:04.650,-0.7544868121673449,0.31188634261230364,7.21364567472801,-0.0925207622185303,1.219595979996188,0.1525213872663351,normal
2024-01-01 00:00:04.660,0.21384135728550452,-0.19811061798691224,6.554414811843014,0.4925962761196833,-0.7476493412552474,-0.1908810970607152,normal
2024-01-01 00:00:04.670,0.48881068444319636,0.20688503265635771,5.196756625378458,0.6766672335345367,0.035195468857555784,-0.1266226729581327,normal
2024-01-01 00:00:04.680,-0.2186459691244934,0.14316469994414113,4.656569229165033,0.723849335754518,1.0838062474938985,-0.20110645963989635,normal
2024-01-01 00:00:04.690,0.20502135326619098,-0.41574587066412955,3.672765865761544,-0.7154268136509635,0.24188040818021003,-0.7937632183031023,normal
2024-01-01 00:00:04.700,0.21676294696792742,-0.3751419557543743,2.493396470670388,0.17413101221201432,0.47689534276716505,0.25552344442632124,normal
2024-01-01 00:00:04.710,-0.4644382998413521,-0.21498249639341335,1.1455906254930577,0.8698996028338472,-0.5655690296204805,-0.5460582169785319,normal
2024-01-01 00:00:04.720,0.2807221041546912,0.3865418826835684,0.09403746069534036,0.8147554216704365,-0.5770553534912204,-0.6130928886382859,normal
2024-01-01 00:00:04.730,0.40643432271224195,-0.11125990670540553,0.9333152210262274,-0.15854598497751526,-1.2496914220026518,0.24286673960530936,normal
2024-01-01 00:00:04.740,0.06854403549347067,-0.4106105200887041,1.628041831904851,-0.39915233990122495,0.5638801693180211,0.1052612556867886,normal
2024-01-01 00:00:04.750,-0.01895459841160944,0.032210948779203975,3.1957764961757156,1.1989221460240784,0.40531080424069127,-0.28698936898434096,normal
2024-01-01 00:00:04.760,0.23638904711819167,0.18745537787397265,4.328172517934398,-0.1660253165962444,1.2437567689801636,-0.09760189991045215,normal
2024-01-01 00:00:04.770,-0.4622261926123842,-0.35939569876520433,4.8493148873349945,0.10751059270294713,-0.8134392408996998,0.12178678377953481,normal
2024-01-01 00:00:04.780,0.02798421085780941,0.5819553111028478,5.789100164134523,0.43658234504941745,0.8259462310420899,-0.044289792546229494,normal
2024-01-01 00:00:04.790,0.3163025871645119,-0.21994848111623458,6.909529423673655,-0.022505657265912072,0.07477370048334113,-0.27501063536427195,normal
2024-01-01 00:00:04.800,-0.372730599451043,0.32432455398702686,7.4530211866866365,-0.479103597165075,0.33160014319965797,0.3883799129885627,normal
2024-01-01 00:00:04.810,0.29777136274597804,0.21146056348876255,8.316472632590266,0.3544683048782923,-0.7705476238173672,-0.1584979538808883,normal
2024-01-01 00:00:04.820,-0.12546889768102854,-0.2161531029657166,8.70004836054685,-0.046076510723222844,0.33792487378661035,-0.6312476846649605,normal
2024-01-01 00:00:04.830,-0.6242480860837311,-0.0306808995291363,9.131722165619498,-0.08259794743739342,0.3237132650478511,0.4658477368969895,normal
2024-01-01 00:00:04.840,-0.031724386268938205,0.00967487781256258,9.511931481931937,0.3783786415592022,0.9453411898026006,-0.05665673152450724,normal
2024-01-01 00:00:04.850,-0.29156898287919364,-0.10341148567248158,9.831913925846187,0.29754132847424103,0.38342886522803876,0.5490889283949902,normal
2024-01-01 00:00:04.860,0.0957778921598479,0.23153522367616464,9.90059591318923,0.7998400588080804,0.3139511279360957,0.1348946306295976,normal
2024-01-01 00:00:04.870,-0.35164234525041366,0.021188191673533092,9.751613276847353,0.6294864610507869,-0.18121130856568615,-0.3320103105206389,normal
2024-01-01 00:00:04.880,0.31508277260177,-0.5193721400268202,9.796109221457755,-0.4436045832542787,0.9548960387947603,-0.33218307205735387,normal
2024-01-01 00:00:04.890,-0.2216490965605881,0.031524195625025286,9.52237195105488,0.6356656137685961,1.1459265676890453,-0.7264794458502828,normal
2024-01-01 00:00:04.900,0.10690724854781043,-0.34307667929364233,8.996157087237172,-0.16722292773094158,0.5067654452198695,-0.19817864430075963,normal
2024-01-01 00:00:04.910,-0.17819398302972025,-0.06718638454156681,8.13877304828981,1.099566128722091,-0.8422537038151647,0.013882548646786848,normal
2024-01-01 00:00:04.920,-0.09687159364743206,0.07351175601882264,7.615291075239038,-0.694029185777089,-0.5196378929865618,0.05171894795020244,normal
2024-01-01 00:00:04.930,0.3575280133947882,-0.030682603515995634,6.949077374757833,-0.040716794838408295,-0.44624435067672147,0.38005137198834277,normal
2024-01-01 00:00:04.940,0.06458353386896519,0.3106427827430938,6.235226469183948,-0.8473246845866514,1.2229439223841099,-0.39542776613260594,normal
2024-01-01 00:00:04.950,-0.1185096273587098,-0.020208462895278625,5.455817418977707,0.7463931035209092,-0.1844162121727902,-0.4945117850424241,normal
2024-01-01 00:00:04.960,-0.3754524043672131,-0.15429503350816062,4.196875868648596,0.12429659563613017,0.6071518567228287,-0.14025064729341427,normal
2024-01-01 00:00:04.970,0.34798538217032304,0.5011606503924829,3.453229990380897,-0.06028083954524153,0.337897975481445,0.15112255956702805,normal
2024-01-01 00:00:04.980,0.219843350786073,0.2248301443755816,2.0204508769491074,-0.5366259828991995,0.08195997277770271,-0.004507257929770716,normal
2024-01-01 00:00:04.990,-0.09796067218487751,-0.03771383235593073,1.1553954592866997,-0.5711015001173926,-0.18095725992702358,0.03936978983760337,normal
2024-01-01 00:00:05.000,0.07299330665233655,0.00546656122846856,-0.06549203037401585,-0.703136567485055,0.3382969888097306,-0.11982333710414475,normal
2024-01-01 00:00:05.010,-0.3088732655894974,-0.11865031348091533,1.0683361575200392,-0.6608819021296459,0.9837084391809482,-0.8264847981988048,normal
2024-01-01 00:00:05.020,-0.3044534655608111,0.027377385599091992,2.3868300745110047,-0.03445743067978244,0.267887482516071,-0.3082748983636424,normal
2024-01-01 00:00:05.030,-0.24785631254337065,-0.28799254943506636,3.208336367016397,-0.20990868835064963,-0.7861577705571624,0.09651987959411679,normal
2024-01-01 00:00:05.040,0.10602816539248605,0.5348687654611064,4.302602989699845,0.8648230943740435,-0.04067704571920032,-0.3709619573667741,normal
2024-01-01 00:00:05.050,0.08875376822953805,0.3746932859971195,5.517615523403523,-0.6641433626995036,0.49949295754940726,-0.06444789739874807,normal
2024-01-01 00:00:05.060,-0.2235908792618119,-0.6752604519374001,6.197857076671121,-0.37173518326279187,0.6382607191911049,0.6127890851498452,normal
2024-01-01 00:00:05.070,0.22133237888863655,-0.2879099754249068,6.773033213694814,-0.289616211095633,-0.862391470039522,-0.4517530871290303,normal
2024-01-01 00:00:05.080,0.23540806227053396,-0.012258134425656151,7.551453543048784,0.4234225545782291,0.3804214979544523,-0.01860230559789175,normal
2024-01-01 00:00:05.090,0.051872449288463546,-0.19363256367126727,8.275098604626534,-0.06821307164494657,0.7109279302798689,-0.053333801767388216,normal
2024-01-01 00:00:05.100,0.3115165703265956,-0.6415546881309325,8.9126993771202,-0.45936556076258983,0.19236174138595427,-0.5068875647158803,normal
2024-01-01 00:00:05.110,-0.08620873518230703,0.21135361326501964,9.333725711703662,0.3804565989231077,-0.391232883107299,-0.269705570215711,normal
2024-01-01 00:00:05.120,-0.03390634058457219,-0.35781766147698507,9.329991839083092,0.3260482652918936,0.0008958543223220748,0.6164478459412844,normal
2024-01-01 00:00:05.130,0.1418576024779904,0.20779820885599068,9.589492681079362,-1.0421144444463457,-0.279517613050052,-0.03393365828564236,normal
2024-01-01 00:00:05.140,-0.010213202783262295,0.13897335922710494,9.615083022065656,0.669799223113168,0.13219602485808413,-0.2559469891844169,normal
2024-01-01 00:00:05.150,0.23816975953534045,0.46093496236448545,9.729152766284086,0.24290911161468204,-0.3115495025128892,0.0391643745700116,normal
2024-01-01 00:00:05.160,-0.37580043995816653,-0.2681775846066796,9.588467459897347,0.009693728932642354,2.876210801163495,-0.038270358402818706,normal
2024-01-01 00:00:05.170,0.427729517903249,0.5521342834089639,9.176899040483004,0.21122137559227258,-0.6174205501982369,-0.49925673308525464,normal
2024-01-01 00:00:05.180,-0.23438144587609444,-0.36956900766363665,8.843772791159378,1.671091290203259,-0.5060582047519223,-0.4204128543475834,normal
2024-01-01 00:00:05.190,-0.049409354993079656,0.45458188305444064,8.187381069235595,0.27058818685943764,-0.12276828481134247,0.26166361557111667,normal
2024-01-01 00:00:05.200,-0.4132628097259921,0.32325163585969025,7.571088051469656,-0.16375734195847785,0.15614856904240118,-0.09480433072928166,normal
2024-01-01 00:00:05.210,0.18006669595167904,0.13363477734791954,7.024573329845545,-0.2486580363703979,-0.850856039602946,7.783034298708926e-05,normal
2024-01-01 00:00:05.220,0.38215541195894803,-0.3266533742458115,6.081871794863049,-0.474573649007617,-1.0230178902104778,0.16649480699605426,normal
2024-01-01 00:00:05.230,0.3213140785856348,0.48962706314204385,4.965957727146077,0.9801390819885716,0.05985324180186806,-0.18905518646838837,normal
2024-01-01 00:00:05.240,0.2500124916786594,0.24585250699798597,4.014541290480345,1.4636824482662492,-0.6688779834098046,0.06694205770356766,normal
2024-01-01 00:00:05.250,-0.467142980987188,-0.500615347453517,3.203890154901112,0.5690310719351432,0.35810919688528925,-0.25079531000379474,normal
2024-01-01 00:00:05.260,-0.23465041628348918,-0.7829560384930981,1.9547179956495226,0.3425598768375107,-0.17001919690281894,-0.27680158789511083,normal
2024-01-01 00:00:05.270,-0.13876889737204887,-0.19853814209862022,0.7594113893521504,1.0084908212168504,0.6640134114404875,0.25073271271144804,normal
2024-01-01 00:00:05.280,-0.28042028015971826,-0.2583550730334365,0.31481593854642687,-0.39492851767233184,-0.08963867038771679,-0.06389036776206364,normal
2024-01-01 00:00:05.290,0.33680856928760267,0.2169786896281086,1.1625204482262643,0.09653639932388061,0.13804949923186463,0.41712234013611815,normal
2024-01-01 00:00:05.300,0.05534529387938038,0.04371630843408779,2.4744260915092036,0.43042404245081795,0.459701422188848,0.036482813522922,normal
2024-01-01 00:00:05.310,-0.007343341267553003,0.09825127017956647,3.4228720479273553,0.07237861437819798,0.6390487890825615,0.039198062364692136,normal
2024-01-01 00:00:05.320,0.146260719631052,-0.1526398198708087,4.5612672041767,0.4428911326801129,-0.26968958613322846,-0.11150749355295321,normal
2024-01-01 00:00:05.330,-0.28548571134847966,0.2895625217412544,5.797277931646491,-0.6873702596128565,0.29612780905450736,0.2888143831927721,normal
2024-01-01 00:00:05.340,-0.27250521848015746,-0.17071874636718146,6.387484800800101,-1.1785207857970845,-0.12627155590223715,-0.19172717493586044,normal
2024-01-01 00:00:05.350,-0.26443859700985145,-0.4548161554487707,6.993761805862819,0.06135998187768405,0.6221221959816772,-0.1085996546887584,normal
2024-01-01 00:00:05.360,0.1492862846899112,-0.7250112450056002,7.60843204035244,-0.33170267498968875,-0.3126127860267722,0.2729040096541701,normal
2024-01-01 00:00:05.370,0.10247891373045151,0.1601570622315977,8.496842248883585,0.7861097354547036,-0.6191251892534725,0.027447205658420272,normal
2024-01-01 00:00:05.380,0.17342774033165312,-0.1821352802401173,8.938391384932975,0.39688148246097565,0.8553173489470552,0.23002935112028525,normal
2024-01-01 00:00:05.390,0.32351493525887826,-0.5169345308608437,9.16515941195552,-0.8767358556868192,-1.5446397986522364,0.10593900493225634,normal
2024-01-01 00:00:05.400,-0.40719025771167033,-0.2641581603311791,9.55359147177357,0.32244254514911663,0.9226635105799925,0.19943870896353644,normal
2024-01-01 00:00:05.410,-0.1681483158721753,-0.11649861222961277,9.780959423086783,-0.4247605977900086,-0.20077451722571435,-0.05494503408993449,normal
2024-01-01 00:00:05.420,0.04426142816180821,0.2117935807314005,9.632878301887946,-1.6493362679059735,-0.1523939496858748,0.003176743954137729,normal
2024-01-01 00:00:05.430,-0.40462293215341205,-0.6420997200801242,9.67397630290157,1.236550669993865,0.5479964601794513,-0.427255990599499,normal
2024-01-01 00:00:05.440,-0.15965256849989123,-0.12103825780041862,9.54186249474402,0.5193776845060761,-0.7642196904104093,-0.2634633752488292,normal
2024-01-01 00:00:05.450,0.3042086708711272,0.22712354479380437,9.013081283214309,-0.3207121811912739,0.40952861322270495,-0.10898092900012095,normal
2024-01-01 00:00:05.460,0.33079323886127515,0.14722951388746008,8.855684085990456,-0.14304554490761381,0.5568101212704535,0.5880058763286836,normal
2024-01-01 00:00:05.470,0.32301206772412366,0.2523589273085967,7.9452555530575015,0.9775023591016487,-1.0395347295643156,-0.200635450014911,normal
2024-01-01 00:00:05.480,0.01290530583275651,0.6041108739181749,7.229650152523473,0.3226261072311181,-1.043901948856477,-0.11702301824443687,normal
2024-01-01 00:00:05.490,-0.06359026111292894,-0.253637496118312,6.787714651203469,1.622337993202885,-0.10634589522534023,-0.2970348999109786,normal
2024-01-01 00:00:05.500,0.3238574070526846,-0.17593158181430102,5.700837732777135,0.08168576422060858,0.02433610332107875,-0.05299065434742348,normal
2024-01-01 00:00:05.510,-0.11179379893292593,0.3327244708850498,4.724290509302724,-0.646922145039709,-0.23566423066059383,0.0008483127064722926,normal
2024-01-01 00:00:05.520,0.10147169705258394,0.49838446990873175,3.69855316216384,-0.05494605529695568,-0.3044533748155699,0.3517241989236016,normal
2024-01-01 00:00:05.530,0.397583677234967,0.11275351402535812,2.8606008216761794,0.706329526842325,0.10679342464213047,0.09424906283992741,normal
2024-01-01 00:00:05.540,-0.11027124011005579,-0.08636147825871682,1.6172040745872869,0.3826280881556053,0.29461718230203054,0.053475810411547586,normal
2024-01-01 00:00:05.550,-0.18316569027969268,-0.339187928815164,0.541621644159878,-0.2582693309350058,0.3139807333792866,-0.30904414300385424,normal
2024-01-01 00:00:05.560,-0.002811381997597501,0.20011888722823834,0.21813756770552517,-0.5208890997166687,0.27499026774921415,-0.1359686252148388,normal
2024-01-01 00:00:05.570,0.17951375364069722,0.11855639298430055,1.3838323373222825,0.22724380555424145,0.4372419044464788,0.6021556952661764,normal
2024-01-01 00:00:05.580,0.14472270475041807,-0.3112028005118946,2.6146666418481654,0.6124282983035887,-0.22473074913233318,-0.30337800696901246,normal
2024-01-01 00:00:05.590,0.04675733196319016,-0.14482968314271014,3.5089207447049073,1.1517213444247056,0.8042814508159986,-0.725425585530873,normal
2024-01-01 00:00:05.600,0.16692604060211166,-0.28333751959459647,4.649662750788849,-0.8818787172494023,-0.32417518548444585,0.05497496412154903,normal
2024-01-01 00:00:05.610,-0.47987962317679983,0.1907360597119361,5.825917812477302,-0.4777301430905999,-0.6167254092374213,0.09241552627420942,normal
2024-01-01 00:00:05.620,-0.2577797976951218,-0.030045091748951452,6.546715031886501,0.12703660382000864,0.18898537797802117,-0.2468078615634211,normal
2024-01-01 00:00:05.630,0.048967834326832396,0.3907200745855682,7.477044975593356,-0.02579494435344949,0.10367970472725377,0.6932222818561151,normal
2024-01-01 00:00:05.640,-0.27859845687341056,0.42381539149535125,7.857437744766014,-0.25478422528235356,-0.2954670923181165,0.02762740433230264,normal
2024-01-01 00:00:05.650,-0.4025023327029028,0.11516728461047682,8.683360224992848,0.2389756095470664,0.06525570103258943,-0.20576150320676923,normal
2024-01-01 00:00:05.660,-0.36234595631830374,0.37669625855071703,9.005350237126747,-0.5982426538640104,-0.9402907495263333,0.438303903146498,normal
2024-01-01 00:00:05.670,-0.27544917696755217,0.33374607511770105,9.547873105942953,-1.402322833607879,-0.4905103093597003,-0.00520507895904854,normal
2024-01-01 00:00:05.680,-0.0535424672473085,0.4714404854380889,9.506859491256321,0.7907985999280144,0.14238990479611985,-0.22230535251932018,normal
2024-01-01 00:00:05.690,-0.3067877447974921,-0.12451074481445515,9.811399573054208,-0.3395544297864564,0.4710146831608387,0.27392384195320474,normal
2024-01-01 00:00:05.700,0.07046965155029766,0.2105658139191218,9.93186363956357,-0.46273155417110196,0.5171648434376486,-0.013124849173772456,normal
2024-01-01 00:00:05.710,0.5088672427997638,0.5803147755515186,9.68394192326674,0.42865630931966,-0.07233154479708877,0.3028983286521326,normal
2024-01-01 00:00:05.720,-0.044287892742649486,0.22171731615712184,9.441815230095818,0.3166150520372648,-0.005424385310158347,-0.665454648128255,normal
2024-01-01 00:00:05.730,0.3824096732253153,-0.10293086838592778,8.980454242505223,-0.5884878691673034,0.9269702666838087,0.3424120461088421,normal
2024-01-01 00:00:05.740,0.08652952256667347,0.09849281262174167,8.17275433219807,0.6544728354241903,-1.1399618702969139,0.22750170917863816,normal
2024-01-01 00:00:05.750,-0.33594704980703805,0.7180910727917615,7.803514413257582,-0.16363227971530547,-0.7782252040884382,0.4517105494071133,normal
2024-01-01 00:00:05.760,-0.07692287249658675,-0.09227025883643267,7.117781852565041,0.20609884704566495,-0.1678412599445535,-0.04089380560748363,normal
2024-01-01 00:00:05.770,-0.2945504224576855,-0.1642634423579701,6.576552448023929,0.09830872826909734,-0.7074405810440183,-0.2557248647695151,normal
2024-01-01 00:00:05.780,0.23038061527714815,0.3009204998250494,5.580681456239736,0.5892925420107045,0.3048637987395501,0.06190158198282356,normal
2024-01-01 00:00:05.790,-0.3459286242060496,-0.08641018208665938,4.461747288845279,0.6125176105717374,0.15487354594409977,0.006943912563792708,normal
2024-01-01 00:00:05.800,0.39677181027589864,-0.447942305047755,3.7487404989100286,0.007210772541081568,-0.5783972854258492,0.3765888026714023,normal
2024-01-01 00:00:05.810,0.17345638277118713,-0.4516826403050804,2.617303219089335,-0.039758804795839826,0.9236110862278042,0.18638783724863708,normal
2024-01-01 00:00:05.820,-0.6066930301144171,0.031636062953313504,1.2256467387477028,1.0720628337923974,0.00901974598978459,0.260562317063345,normal
2024-01-01 00:00:05.830,0.23530242438092758,-0.16275925033370775,0.5655014619506822,-0.46986388928035183,0.03183019427455486,-0.1899027310722815,normal
2024-01-01 00:00:05.840,0.46590490864194,0.47240021105924157,0.797192411370098,-0.7686131244579941,0.8235918965944787,-0.30026362891404224,normal
2024-01-01 00:00:05.850,-0.2371571134843904,-0.1539890348327975,2.260736921332221,-0.02190178187088279,-0.42688072856481557,0.33007307148232184,normal
2024-01-01 00:00:05.860,0.2955756638668896,-0.39318492067201555,3.0725661412989114,-0.5551018362248693,-0.5297363985148927,0.30709133171326997,normal
2024-01-01 00:00:05.870,-0.5395145195103742,-0.20708284524190132,3.7130021078442557,-0.22474623785339362,1.6688536994793386,-0.1733350701533057,normal
2024-01-01 00:00:05.880,0.07564698349380071,-0.34691268837381234,5.112636557275099,0.46632007076056714,-1.1129839538850241,0.6374841774629275,normal
2024-01-01 00:00:05.890,-0.4984168085060366,0.383823790564386,5.897212527349048,1.7205929934999473,0.17551435953914876,-0.21020293936267923,normal
2024-01-01 00:00:05.900,0.14471729689449891,-0.2091787354935774,6.653359690631345,0.596248170360774,-0.05307087686495818,-0.10820005251272657,normal
2024-01-01 00:00:05.910,-0.5363888250247796,0.48535199454457006,7.525678126738314,-0.3393306279196693,-0.5411906100225691,-0.19445398444923276,normal
2024-01-01 00:00:05.920,-0.7898610622226011,0.20065423598940835,8.244175974837999,-0.3439894762916491,-0.5656454099920233,-0.2415088518078174,normal
2024-01-01 00:00:05.930,0.11882795057548794,0.6464721292129247,8.656694163234812,-0.6787529104407463,-0.34327860043997094,-0.0670161560384808,normal
2024-01-01 00:00:05.940,0.6863669305123602,-0.0021782451589348675,9.022585604923481,0.19495459811408797,0.9153363700865436,-0.12631435168006003,normal
2024-01-01 00:00:05.950,-0.17870087269250481,0.28631532185768555,9.594132059192344,1.0638307394036028,-0.7051109719113894,0.2720473924704932,normal
2024-01-01 00:00:05.960,0.2490496639906869,-0.6056591024271408,9.769900487353667,0.07836775244173892,-0.08754848497309774,-0.24643320614450454,normal
2024-01-01 00:00:05.970,0.03321332891840109,-0.11287154997272748,9.62523755492629,-0.7318727586680478,-0.22713890842306833,-0.514071441393951,normal
2024-01-01 00:00:05.980,-0.0970514218874081,-0.19667851187551325,9.96768994914772,1.1599964007671062,0.9906500530848052,0.16338173629064634,normal
2024-01-01 00:00:05.990,0.18461528553120518,0.38046643872613867,9.568735240894567,0.2960824793081778,0.3856259297815517,-0.605795070521956,normal
2024-01-01 00:00:06.000,0.49272161377703266,-0.009205983578392819,9.614067018054618,-0.10817937009903146,0.054394401886524925,-0.3966638614236027,normal
2024-01-01 00:00:06.010,-0.3705383961566831,0.23481714944667748,9.15024468147474,0.7407719094295785,-0.3808149327196469,-0.19464794992730716,normal
2024-01-01 00:00:06.020,0.16916908320512053,-0.18768822685046385,8.387515520134578,0.11743135250682192,0.6440779828340152,-0.09418380222557796,normal
2024-01-01 00:00:06.030,0.10354062898007049,-0.3617450175219535,7.909711319969381,-0.0044009549854861375,0.6310348274486585,-0.4321712716624349,normal
2024-01-01 00:00:06.040,-0.42730370119803956,0.005321485647767632,6.907788330061046,-0.4211390809966975,0.6667053516067621,-0.202562294095499,normal
2024-01-01 00:00:06.050,0.4844132601697193,0.42818818778309903,6.27889573541531,-0.780176629940904,-0.1699192878366518,0.4465012341514721,normal
2024-01-01 00:00:06.060,0.584807613259147,0.015754835373122413,5.07170879514346,-0.2764754729754737,-0.41379162426068544,-0.28479368778820313,normal
2024-01-01 00:00:06.070,-0.2858315966051571,0.5098490607059368,4.225645787867193,0.8566995771168548,-0.5353717794475722,-0.5384869324709914,normal
2024-01-01 00:00:06.080,0.5213701485995217,-0.0686580373483283,3.36833044552434,0.22009047387539787,-0.059422297609513515,-0.38665777261078205,normal
2024-01-01 00:00:06.090,0.016843835441692965,-0.07590240919890286,2.4110249792863514,0.2781113965424877,-0.7290969110152322,-0.10329476343110934,normal
2024-01-01 00:00:06.100,-0.04897450165332669,-0.07590514586544701,1.3579090466981496,-0.872749645116452,0.5796500812439246,-0.21647301453202886,normal
2024-01-01 00:00:06.110,0.4510346835794282,-0.04687988774442275,0.2952752716243957,1.7536876282722869,1.2697483020119862,0.13168548445518724,normal
2024-01-01 00:00:06.120,0.06822985656343308,-0.17813978222289414,1.1374271351368417,-0.2088243631485836,-0.15664584190646344,-0.18068182762890447,normal
2024-01-01 00:00:06.130,0.09695277191058714,-0.0411790735180697,2.0058257405646067,0.1580146484734807,-0.8034973394683363,-0.2214549158672218,normal
2024-01-01 00:00:06.140,0.4553024923908875,-0.21508722019632057,3.130813395603105,1.1475050616474907,0.23126879007895207,-0.19843401480752762,normal
2024-01-01 00:00:06.150,0.3864659758493931,-0.2824119514597271,4.076919981818021,0.07002902557636626,-0.2840009583846998,-0.17610522488430766,normal
2024-01-01 00:00:06.160,0.2679448253748774,0.49484909100419516,5.153830609428423,-1.2583143540882582,-0.05811821008997104,0.10404458494953674,normal
2024-01-01 00:00:06.170,-0.4201649651821779,0.2990695323097881,5.7861251579065165,0.48436474408500546,0.05532113060330208,0.24293543313739568,normal
2024-01-01 00:00:06.180,-0.4717171023734225,-0.05980069102813935,6.765735936850985,-0.8176351307266437,0.6984210015914301,0.06724563405985705,normal
2024-01-01 00:00:06.190,0.33784237100716846,-0.1522205743676447,7.848773188772946,-0.05694413826209193,0.3562625400142188,-0.6828623172412769,normal
2024-01-01 00:00:06.200,-0.27801585769290094,-0.4447169374179049,8.305011585171021,0.21253900261348826,-0.748197048004815,-0.06794898558792263,normal
2024-01-01 00:00:06.210,0.04454506367454416,0.21090492103173145,8.715931589801636,0.9170510937753615,-0.5263080432352801,0.00561571553640738,normal
2024-01-01 00:00:06.220,-0.3222215985162507,-0.17320228753325032,9.351164498322301,1.049987679575187,1.1955552841705095,0.5423601685798565,normal
2024-01-01 00:00:06.230,-0.055105958618443286,0.6187729774907182,9.599032455352994,0.9617040087290348,-0.6071902569476166,0.36005346510835806,normal
2024-01-01 00:00:06.240,-0.3836085378746356,-0.4974135989247942,9.735540095273151,-0.23750178862949983,-0.33991985833626737,0.1740644540061784,normal
2024-01-01 00:00:06.250,0.4890522155727178,0.13615760073353153,9.749467379322184,-0.17129283416326035,-0.5574512383330916,-0.054206409524551316,normal
2024-01-01 00:00:06.260,-0.305673728966022,0.4022530635963327,9.588046854433454,0.34474861102105864,-0.556217710896619,-0.3234467867282112,normal
2024-01-01 00:00:06.270,-0.03659828029140191,-0.13008547918274524,9.551465682382387,0.2876679212572904,0.0979031753740111,-0.42297626832884627,normal
2024-01-01 00:00:06.280,-0.056459844483935304,0.6514053014838038,9.264377083261325,-0.26176315389678,0.8053745997271644,0.5199912419187444,normal
2024-01-01 00:00:06.290,0.36182933798102235,0.33975924947512265,8.823580780465129,-0.07283630801672282,-0.7691757861937657,0.5101739943933625,normal
2024-01-01 00:00:06.300,-0.4259692668295345,0.335509972149679,8.506430756146209,-0.7260580885020371,0.9667951038776278,0.4593350184642747,normal
2024-01-01 00:00:06.310,-0.010002609726370175,-0.2280733869336109,7.636151468725459,-0.2958227929584914,0.1244216283441873,-0.5864708162875494,normal
2024-01-01 00:00:06.320,-0.06277028027363168,0.3473493588087991,6.938409214382852,-0.9738679973651333,0.7787021278001348,-0.06576197227867303,normal
2024-01-01 00:00:06.330,0.15897766236464161,0.3419813721500382,6.2532144221064305,0.2399185818175375,-0.37482695178106906,-0.15839537424947686,normal
2024-01-01 00:00:06.340,0.14160503375429848,0.07627970468431404,5.278532686327581,-0.22557896769805952,-0.5100243136092713,-0.20496965237804216,normal
2024-01-01 00:00:06.350,-0.13912396018244325,0.5833210085307359,3.863519654134515,1.0993749260534682,0.09838552581198655,0.45031293077711837,normal
2024-01-01 00:00:06.360,0.07187579733759182,0.13931022674235186,3.13429696958993,0.23082457746911392,-0.17757428202897454,-0.005400968644849014,normal
2024-01-01 00:00:06.370,-0.11238935467262634,-0.6530570058395907,1.9199739964099984,0.1425324886329541,-0.11055245321949222,0.08341162675063131,normal
2024-01-01 00:00:06.380,0.14043457121756792,0.14098087732527545,0.8636237131816842,0.20713907299025194,-0.17372286503793608,-0.6558305025938282,normal
2024-01-01 00:00:06.390,-0.030774049747395404,0.5707737840756018,0.26656403508719834,0.460681001976945,0.2376387720244939,0.08828633069367002,normal
2024-01-01 00:00:06.400,-0.19667072811832567,-0.14698645224535284,1.4720807485198892,0.04364296911730367,-1.4081737323308774,-0.30264573834588515,normal
2024-01-01 00:00:06.410,-0.008267106784690474,0.26504181745324695,2.3832848956602986,-0.7839567982862594,-0.20027284426450837,-0.019121607406130274,normal
2024-01-01 00:00:06.420,0.1091351883928564,-0.15679934720104802,3.0216805366217705,-0.40698679636510726,0.523559548956592,-0.08087572454248536,normal
2024-01-01 00:00:06.430,0.6797647803945652,0.03669324869823156,4.321966779408697,-0.12094257390941938,-0.1670275008016037,-0.10690384047640707,normal
2024-01-01 00:00:06.440,-0.14736956123574346,-0.7889507012696638,5.308505250957019,0.4555706438258377,-0.2679371190552295,-0.23113043534825103,normal
2024-01-01 00:00:06.450,0.09199741933180658,-0.5148354681946831,6.175114837205052,0.6755290431365689,0.34523057140876046,-0.24142898212927294,normal
2024-01-01 00:00:06.460,0.4389110164848569,-0.054830470946366394,7.308631643692212,0.7221619432650468,-0.15659537689122116,-0.21417690550405907,normal
2024-01-01 00:00:06.470,-0.6234506028023111,-0.14046520706391805,7.85860009341501,0.2764856132890144,-0.1319716338028127,0.14344482867730485,normal
2024-01-01 00:00:06.480,-0.5229114592904099,-0.5339452423617743,8.513826903907312,0.30663677169484865,0.29608654787068184,0.8255940400996892,normal
2024-01-01 00:00:06.490,-0.3565978050347486,0.24960702855180272,8.935376586468385,-0.4737827283055017,0.5273898665233424,-0.2795232124185663,normal
2024-01-01 00:00:06.500,-0.034270962850474304,0.1412523504868481,9.46390671710081,1.038382152088255,0.4002852241632754,0.33169603301824546,normal
2024-01-01 00:00:06.510,0.7319930344479212,-0.2350010137688639,9.584566233932032,-0.44389876422187735,-0.3098261180542118,-0.4388310295281042,normal
2024-01-01 00:00:06.520,0.11741009171859848,-0.5980806099560495,9.568859039615834,-0.370304232986147,-0.912515567329841,-0.22619842429189607,normal
2024-01-01 00:00:06.530,0.36242260250406116,0.208009854370057,9.802524822529474,0.15998431498360807,0.6394525391175705,-0.2861559982400665,normal
2024-01-01 00:00:06.540,-0.0666118052089306,-0.11930260394514212,9.60568652187118,0.08276844796577071,-0.4565137018096035,0.3415798850275962,normal
2024-01-01 00:00:06.550,-0.7391171292897244,0.25295041730643736,9.264447564207217,-0.25407254142779584,-0.8069447833967136,0.6587254798657158,normal
2024-01-01 00:00:06.560,-0.6940915078322161,0.3750401413025282,8.862153131817353,0.2301933305635061,-0.5975969870693436,-0.47984206252697514,normal
2024-01-01 00:00:06.570,0.30558577070185905,-0.07778286787693181,8.617919223727407,0.5258882507903152,-0.7317489953267006,-0.16855698411926423,normal
2024-01-01 00:00:06.580,0.055457862751590176,-0.04350823973116954,8.102909000239752,0.4497182348505851,-0.2954699169622348,-0.44405864876937867,normal
2024-01-01 00:00:06.590,-0.3895497503438042,0.25760081518417627,7.753515417515935,-0.8998293653085886,-0.7416291089555521,0.6495547954227703,normal
2024-01-01 00:00:06.600,0.3351962045999945,-0.05474993633214098,6.615011917131756,0.06762686048643177,0.12718926069025735,-1.0592726502529186,normal
2024-01-01 00:00:06.610,-0.4616864926642732,-0.5813746440471558,5.750573998431762,-0.6804726300985477,0.5709375015825651,0.05210314113844505,normal
2024-01-01 00:00:06.620,0.34027263696085935,0.2056826356449367,4.923003602839324,-0.173413648098387,0.16126320857985962,-0.0940165583712882,normal
2024-01-01 00:00:06.630,0.43540225489979223,0.11513532043016547,4.070717995656177,0.7289398620198547,-0.5238921621995882,-0.003728373324368456,normal
2024-01-01 00:00:06.640,-0.22944701266689474,-0.15800869556852687,2.7156273245568845,0.2264514257346353,-0.5426657738035777,0.37252163450968945,normal
2024-01-01 00:00:06.650,-0.33243511141965193,0.1747227370976481,1.7930940691838293,-1.1466164885324381,-0.42474814029174174,-0.22772245255751788,normal
2024-01-01 00:00:06.660,0.2532981151895287,-0.10225314431653448,0.9278347578316377,-0.30364862183631447,-0.028535604436270085,0.31163816456919824,normal
2024-01-01 00:00:06.670,-0.32858657358918525,-0.11212753640587839,0.6152967120449032,0.9495887302905449,-0.7777320858803685,-0.26534479385000237,normal
2024-01-01 00:00:06.680,0.25856593715929177,0.25451495915983774,1.3515222457272755,0.12470695774542771,0.233507243770305,0.016258256223892827,normal
2024-01-01 00:00:06.690,-0.3585716333890911,-0.4107346875693209,2.2906926577784246,-0.40234130819068276,-0.36814062899048194,0.935949153431214,normal
2024-01-01 00:00:06.700,0.2422735680792474,-0.48582095421717586,3.5834770333322017,0.49517095059310834,-0.2214099781955475,-0.2190058839992668,normal
2024-01-01 00:00:06.710,0.028160083066019775,-0.03906797985135747,4.576972443384126,0.2399838343250067,-0.2217995826449587,-0.4240253468303413,normal
2024-01-01 00:00:06.720,-0.1298335129984939,-0.3963266743649276,5.723362708396671,0.21049115531226806,0.9137518053011638,0.24418730333409866,normal
2024-01-01 00:00:06.730,-0.26870540478729055,0.2702227812128256,6.570703940492431,1.3253846242622267,0.28793944174661573,0.2729830296582548,normal
2024-01-01 00:00:06.740,0.07127243095644385,-0.2212479850496189,7.237007552483948,1.5690317021589522,1.5240610402083574,-0.04809550679727727,normal
2024-01-01 00:00:06.750,-0.5677981900002759,-0.5239669231170462,7.800743167754991,-0.15536501899689545,-0.30924487515159427,-0.18252958070482136,normal
2024-01-01 00:00:06.760,-0.08278925167467638,-0.11820504068489883,8.580877544525181,-0.11605708633110862,0.360801130738102,-0.5091378012437643,normal
2024-01-01 00:00:06.770,-0.1188462507683413,-0.6769520723399217,8.890348247253012,0.24135922599676654,-1.2792020184650121,0.14943074470046266,normal
2024-01-01 00:00:06.780,0.20350797833669537,0.42235871222031063,9.252872701384383,-0.6439054421800852,0.050732875249798845,0.290305607166496,normal
2024-01-01 00:00:06.790,-0.3761461065525448,-0.004464575963149123,9.64480743118909,0.12251352085238452,0.30012376782608685,-0.7963067148809245,normal
2024-01-01 00:00:06.800,0.514031441578633,0.21263302606426246,10.08723685999898,-0.49676579623782563,-0.8190001313920982,0.258062680689069,normal
2024-01-01 00:00:06.810,-0.09347423183419351,0.1629587005122614,10.065018145121089,-0.33012562356438047,-0.6871339393256413,-0.018756444231697283,normal
2024-01-01 00:00:06.820,-0.3414502566799388,0.06584188464495072,9.897208411727718,-0.8951540140335329,-0.33632557193405205,-0.09349761406807072,normal
2024-01-01 00:00:06.830,0.4158236248511393,-0.31401704549841614,9.18491959749733,0.9523861185296641,-0.46997905635397824,0.13283340107033953,normal
2024-01-01 00:00:06.840,0.49887931117229534,0.2445732439699081,9.164373178909173,-0.8414899758678199,1.0111858157816638,-0.35789837341808944,normal
2024-01-01 00:00:06.850,-0.05633159999219645,-0.09694361219788193,8.473883871452616,-0.8148548966854309,-0.019293365502164893,0.001369592074361943,normal
2024-01-01 00:00:06.860,-0.26732185179486756,-0.22919432577453283,8.076836718788291,0.047722747013096666,-0.781522577830107,0.5595388451016545,normal
2024-01-01 00:00:06.870,0.004815890593792222,-0.6181647253746044,7.448284073090721,-0.7602168515723873,0.3084376052076558,-0.008917881551961831,normal
2024-01-01 00:00:06.880,-0.2071235204524368,0.3958120892209362,6.635921018153711,-0.057416909991199444,0.3324835095782086,-0.5864336079658624,normal
2024-01-01 00:00:06.890,-0.09361006193257132,-0.06768450280436539,5.559890309587902,-0.3698757732131766,0.3272301558087617,-0.01795659599674676,normal
2024-01-01 00:00:06.900,0.4675288187037038,-0.12160894224131404,4.5670893140327795,-0.3208238380314068,0.3920748732317928,0.8905234102157081,normal
2024-01-01 00:00:06.910,0.1175702961701501,-0.5780957246637852,3.8295308346638817,0.4573993868450884,-0.45302870685916635,0.7734865855203205,normal
2024-01-01 00:00:06.920,0.04361814726011242,0.2898130066572715,2.8652624168517993,0.9792672752977885,0.11098817593606554,-0.6162508122376077,normal
2024-01-01 00:00:06.930,0.10380365886582855,-0.029544335770148696,1.4759443923216744,0.013557676193013467,0.35594716431076695,0.7678562422018945,normal
2024-01-01 00:00:06.940,-0.017426941890751405,0.3126209036877073,0.35529654968603663,-0.3060355229238281,0.3586021400654416,-0.22238710877477297,normal
2024-01-01 00:00:06.950,0.2524703586660276,-0.0067267723265204945,0.5920934143475017,0.1162577533523541,-0.32651859817483875,0.6211398205579189,normal
2024-01-01 00:00:06.960,0.2637870392685525,-0.2550711926763683,1.6269078503645114,-0.065378758122548,0.49887542805553464,-0.575026584474859,normal
2024-01-01 00:00:06.970,-0.11091501634671198,0.1780177947511831,2.939505475253318,-0.261469182731614,-0.0033527277811433802,0.2382197346396374,normal
2024-01-01 00:00:06.980,0.03152651761256555,-0.47459671640215145,3.9964088832068323,-0.4778697579121246,-0.1417434290576246,0.781674805376901,normal
2024-01-01 00:00:06.990,0.7240823036434947,-0.46927592753983377,4.95612587881107,-0.16087414453108856,-0.393670375843532,0.04205357317295715,normal
2024-01-01 00:00:07.000,0.12647974385172048,-0.01641884519776849,5.6691802745429944,-0.3850506597509291,-0.5676490779455335,-0.477107157635659,normal
2024-01-01 00:00:07.010,-0.05575601501645637,0.23143595313625784,6.486730177561252,-0.06089928775829289,-0.5975142484740446,0.43010151445919054,normal
2024-01-01 00:00:07.020,0.6149075258385213,0.3444174286258084,7.346028704196757,-0.27782254818689545,-1.23229169332761,-0.6838870349701653,normal
2024-01-01 00:00:07.030,0.0028297661515418317,-0.023661945045334646,8.095436512593874,0.6521234754558347,-0.1379006326524243,-0.4227499176499639,normal
2024-01-01 00:00:07.040,-0.32919057731293155,-0.03148265751229306,8.782986351064503,0.08481319036227099,-0.9427030904634988,0.2697374668315921,normal
2024-01-01 00:00:07.050,0.2023742579471847,0.06670080966788225,9.183681314502735,-0.02340451385239848,-0.14503863852440246,0.24880446334265865,normal
2024-01-01 00:00:07.060,-0.26994784489532214,-0.05868339111850193,9.416054244726848,1.1991938822439414,0.18352436572567568,0.05861635897913063,normal
2024-01-01 00:00:07.070,-0.14916675434353116,-0.14881866930599208,9.785179699315819,1.2936198272615667,0.9853595771829373,-0.8366023854769411,normal
2024-01-01 00:00:07.080,0.09789761589720694,0.1564136780843822,9.923656562652562,0.02218153321542753,-0.04012304162028153,0.1907575323792936,normal
2024-01-01 00:00:07.090,-0.038030077454531686,-0.14955278857446883,9.762512529665212,-0.15653911740725737,-0.43568846696351393,-0.09997431985547724,normal
2024-01-01 00:00:07.100,-0.2290459822245118,-0.061704817298976034,9.487363737914977,-0.5671831797156341,-0.5763280729349062,0.17799858432140986,normal
2024-01-01 00:00:07.110,-0.16528697626757666,0.3688448127585037,9.439680435067352,0.2504058572022891,-0.5115147978630776,-0.5213124696176878,normal
2024-01-01 00:00:07.120,-0.17801280080309187,0.07162322059399108,9.126361412000985,-0.25391844570623257,0.8605861462336266,-0.6693024338046099,normal
2024-01-01 00:00:07.130,0.34985593633285633,-0.1537032364990941,8.581467578680785,0.47046958553692675,-0.7367302248415533,-0.17336624858797123,normal
2024-01-01 00:00:07.140,-0.21630006326182724,0.2164803310220823,7.707306141429212,0.6920778670508637,0.1416974892413663,-0.328090181600363,normal
2024-01-01 00:00:07.150,-0.171665718211476,-0.03882348867072426,7.218283295434357,-0.4034780301142677,0.5174009902313343,0.16419090873460393,normal
2024-01-01 00:00:07.160,0.6115063109889228,0.21032536002513808,6.364421194501996,0.4051101869234647,0.859756058336816,-0.5177866085181096,normal
2024-01-01 00:00:07.170,-0.16612929803521592,-0.2579691177261696,5.429608910963196,0.21432747132754926,0.798914390861953,-0.5335484073484413,normal
2024-01-01 00:00:07.180,0.4468253125561034,-0.23116989124092083,4.488112731066897,-1.756890050350702,0.5262560182798365,0.32903688032255685,normal
2024-01-01 00:00:07.190,0.39471966076678644,-0.4303709228762484,3.4165451703871885,-0.5477990940302302,-0.3964868788470923,0.29164358780053795,normal
2024-01-01 00:00:07.200,-0.04582548627918231,0.3453544728159117,2.340646565517501,0.11066873268995817,0.4745344090267826,0.28730342465397346,normal
2024-01-01 00:00:07.210,-0.4258174002466343,0.43026339558743526,1.4004113192314624,-0.23744958032099228,0.03397503284372945,-0.4062009523766197,normal
2024-01-01 00:00:07.220,0.1359042393242847,0.3652736689792923,0.2479739623311855,-0.16800014897977214,0.24187937618255742,0.16313990369719894,normal
2024-01-01 00:00:07.230,0.2018025441239118,0.11143862079227661,0.8828322940135274,0.1537071185810183,-0.48521730168125454,0.5046425420291866,normal
2024-01-01 00:00:07.240,0.29034134452168897,0.06382138740151781,1.7859598735226547,-0.40948849829096484,0.9907761320962734,0.2764389624824306,normal
2024-01-01 00:00:07.250,0.021568271308564525,-0.06827707257019588,3.0681588175748025,0.5952952281895868,-0.6400845946470076,-0.6716611491796093,normal
2024-01-01 00:00:07.260,0.36136724558544814,0.1805118379176967,4.308340135320613,0.12792954831017678,0.0618217899015304,0.15655607645307323,normal
2024-01-01 00:00:07.270,0.41710758211581267,-0.0533425869123321,4.887546457753304,0.05435428961609095,-0.648214136509522,-0.47401749822977385,normal
2024-01-01 00:00:07.280,-0.3163146122564401,-0.30488733386149536,5.9806039539603475,-0.7258490221755358,-0.2945205159464737,-0.6856061193067896,normal
2024-01-01 00:00:07.290,0.4288464921107196,0.3052504429562267,6.805899168968166,0.5839797257020515,0.49394039827624797,0.31689806990493985,normal
2024-01-01 00:00:07.300,0.05236270624823128,0.2746233807844012,7.603645314247806,0.7016471933693712,-0.49072811630440555,0.33136382648699914,normal
2024-01-01 00:00:07.310,-0.1697232167918509,0.1618660395147958,8.330056103825179,-0.11000470509377144,-0.12506453842157503,-0.26364596501633764,normal
2024-01-01 00:00:07.320,-0.09558831842812868,-0.01784026395263943,8.681178712635914,0.2652240199652544,0.10103094035537317,-0.24517860440762648,normal
2024-01-01 00:00:07.330,0.5632716424556243,-0.11365085650049525,9.346207703178083,-0.28665645121192923,-0.9817674063779601,-0.14607892259449523,normal
2024-01-01 00:00:07.340,0.2952089932826245,0.03034199876519629,9.635993462213316,-0.25886341363264853,-1.4831341641014149,0.6213163818887859,normal
2024-01-01 00:00:07.350,-0.5367137878573304,0.06518298970879279,9.691684170958741,0.3886936569555967,0.1443888686405708,-0.40021192860599514,normal
2024-01-01 00:00:07.360,0.025037252722164227,-0.3516388938506545,9.910199352231357,-0.25158094370707346,-0.18925755379932696,-0.05669530220113173,normal
2024-01-01 00:00:07.370,-0.041954984573766674,-0.13611764945328156,9.950200968505557,0.0028316230462982167,-0.059013798900609156,-0.6891496050902755,normal
2024-01-01 00:00:07.380,-0.05267618158708156,-0.318620392633146,9.809622603379646,0.31071095800382753,0.02906545121560683,-0.13776922850548037,normal
2024-01-01 00:00:07.390,-0.15394656802210965,0.3374861042469545,9.268200022451639,-0.5573629248179308,-0.0562721372434591,-0.3731637203118351,normal
2024-01-01 00:00:07.400,-0.4368904423603631,-0.4076423168512994,9.011599516228381,0.4885935468483885,-0.018231089632612517,0.5604190369372114,normal
2024-01-01 00:00:07.410,0.25849329381174957,-0.36428092038268084,8.356555583712968,-0.9296370284914804,-0.33016078166838453,0.24287762520422876,normal
2024-01-01 00:00:07.420,-0.28190692202889395,-0.2667407853668151,7.60590082169516,-0.40713828416481496,0.4904486195185807,0.351481947695703,normal
2024-01-01 00:00:07.430,-0.111012332752802,0.04819276457273287,7.353820336666262,0.7160126866161031,0.30258779770467675,0.26158590230663864,normal
2024-01-01 00:00:07.440,-0.18071558572414187,-0.28058378817098795,6.330362522989265,0.6082905429406864,0.3298421522700044,0.44725973230294974,normal
2024-01-01 00:00:07.450,-0.2183471633621753,0.528916092588431,5.38899633158733,0.04949691801823956,0.3220998938185702,-0.26181945263529,normal
2024-01-01 00:00:07.460,0.22297100266817324,0.22023194168673882,4.262610576582445,0.005003309090302964,-0.0209844855400722,0.4877991772676193,normal
2024-01-01 00:00:07.470,0.11513224753929839,-0.7246040439652983,3.3142435082812374,0.18131929961787768,-0.6498018565668676,-0.3867646746842595,normal
2024-01-01 00:00:07.480,-0.20224849010322632,0.06619554331942147,2.1486031480512175,-0.24408692180085853,-0.00882776535634653,-0.5570193530402484,normal
2024-01-01 00:00:07.490,-0.2834432074523899,0.1033659456604656,1.4128908726749627,0.09835902142979303,0.4353046183436474,0.27799777091974504,normal
2024-01-01 00:00:07.500,-0.14082432325267835,-0.38343946151561936,-0.06609255512582944,0.6086561636390341,0.17513376630578986,-0.008427324608004582,normal
2024-01-01 00:00:07.510,0.2901072533345147,-0.029415072094939383,1.1322568131759665,0.28716877457626705,0.4718156558932331,0.032267077071488515,normal
2024-01-01 00:00:07.520,0.03777641270037564,0.023162893689474787,2.3509410299028284,-0.5221241333675035,0.2683645433258714,-0.14139019612723083,normal
2024-01-01 00:00:07.530,0.06992510761574076,-0.19570738742292057,3.2632618873079173,-0.4726051952378628,0.6573980438134893,0.5035720383727771,normal
2024-01-01 00:00:07.540,-0.09844910041911346,-0.03352647634115579,4.444355760556008,-0.9541582039490814,-0.17428198698760441,0.07196286462534873,normal
2024-01-01 00:00:07.550,-0.07736412413996568,0.09845968031389078,5.313815472582394,0.7381599763613124,0.13098097840045517,-0.004955758209706185,normal
2024-01-01 00:00:07.560,0.06496311799788379,-0.15833856731573873,6.162757545642093,0.6251603516875028,0.5065472642505121,0.13887302570964855,normal
2024-01-01 00:00:07.570,-0.5530275030351154,-0.02246087392621257,6.996584905397565,0.5185601601159734,0.1244779700579455,-0.05362021881197044,normal
2024-01-01 00:00:07.580,0.48361743366955184,-0.36593144489161233,7.426945346751794,-0.4412546101771019,-0.8809684951578428,-0.16477811583119994,normal
2024-01-01 00:00:07.590,-0.23629306552734586,0.18549225173193495,8.505670157945795,1.064635699770803,0.41779979218445573,-0.004712242447482101,normal
2024-01-01 00:00:07.600,-0.17049431551807903,-0.1958179242770852,8.981809649722488,-1.088002501908903,0.26288388154377995,-0.3302496589406866,normal
2024-01-01 00:00:07.610,0.40154910621464707,0.36258001304454684,9.362303736282321,0.6359882309685071,-0.8989659958199357,-0.24251677751748418,normal
2024-01-01 00:00:07.620,0.06673011757945463,0.6177229195947737,9.62788726305255,0.5490212412139979,-0.3337714579605603,-0.6224342352152366,normal
2024-01-01 00:00:07.630,0.012625066256412744,0.5015016496259188,9.61861748025793,-0.5403156083041063,0.12634480152910418,0.3002052323937416,normal
2024-01-01 00:00:07.640,-0.1749957891302145,-0.14399268681989655,9.831784054714024,0.09654799433820245,-0.6398989125577559,-0.161410591497534,normal
2024-01-01 00:00:07.650,-0.4683508188634771,0.12557196906638504,9.604422348004794,-0.698353179162644,0.03743831205464251,-0.4229257752077539,normal
2024-01-01 00:00:07.660,0.05548360655265383,-0.08278293594263848,9.455436949262952,-0.24254147898187353,-0.533850104516988,-0.004459411588655424,normal
2024-01-01 00:00:07.670,0.35857841661742695,0.13446956599079074,9.038726272131822,-0.4524548374467574,0.148526261688156,0.08396746901641733,normal
2024-01-01 00:00:07.680,-0.26989656201229273,-0.25463852377365764,8.720442599605228,0.384860093083467,-0.06355376540506304,0.6594103402233824,normal
2024-01-01 00:00:07.690,0.40882645853658234,-0.3104505785431728,8.378784080908723,0.8510843692247729,-0.27474762229118366,0.9570009801483094,normal
2024-01-01 00:00:07.700,-0.33814263862440097,-0.020480981373659102,7.632695417435448,1.2313156834972354,-0.5942083941846489,0.42741016091271244,normal
2024-01-01 00:00:07.710,-0.2202033377160644,-0.24688803749521576,6.671736052439634,-0.8349207416912323,0.26378219286327814,0.41029427895278564,normal
2024-01-01 00:00:07.720,0.15176746485669532,0.3646851697559504,5.837624870947485,0.34230296872182336,-0.7650059408346533,-0.6552399082536117,normal
2024-01-01 00:00:07.730,1.9568505055157584e-05,0.21333462904790132,5.216422017728812,-0.15321545168866918,-0.02501517697170872,0.6136394770030802,normal
2024-01-01 00:00:07.740,0.20726640033548252,0.09608297543779122,4.033675279322851,0.1991577425394657,-0.9149847162022322,0.32949449675289993,normal
2024-01-01 00:00:07.750,-0.22252142754889873,-0.04961077581793426,3.166777014878525,-0.9178564972370423,-0.1847085361224816,0.3046093236314577,normal
2024-01-01 00:00:07.760,-0.30952848615531986,-0.05636505898623642,2.2141943044884242,-1.2261502925568368,0.9268262256459662,-0.03669251559512732,normal
2024-01-01 00:00:07.770,-0.5601188103432436,0.2875082329734008,1.0207005114530807,-0.8043230430253909,-0.09851154595994667,0.021205485091999376,normal
2024-01-01 00:00:07.780,-0.36111337489531575,0.017733079326217416,0.0907447511059393,0.752772007595358,1.4940617307684643,0.6914012931090864,normal
2024-01-01 00:00:07.790,-0.3228323263913893,-0.0006644738396614632,1.0147925164925191,-0.7604563864899905,0.5658843174880168,-0.08801365305030251,normal
2024-01-01 00:00:07.800,-0.4280896861567458,0.5596160356285996,2.685623340390244,0.49724529657279115,0.15823861872395636,0.5459735108061902,normal
2024-01-01 00:00:07.810,0.09253835260204342,0.038944965492304764,3.294449468498131,-0.0034529645709690075,-0.10852692196668869,0.13971203698015186,normal
2024-01-01 00:00:07.820,-0.19916554963098718,-0.08217105099397363,4.297731797012694,0.4285806950022576,-0.44927187945516556,-0.6996706430514439,normal
2024-01-01 00:00:07.830,-0.5964885185980371,-0.07221959015012516,5.384672064399043,-0.26911759654518,-0.6048617565987922,0.22798207426345124,normal
2024-01-01 00:00:07.840,0.7450447925845289,0.3808580192897151,6.29860489222136,0.6694040997112471,0.15233920400089657,0.2971845461076234,normal
2024-01-01 00:00:07.850,-0.2504560983813699,-0.15296366960931035,7.244701447180379,0.06272774262280933,-0.32119157643430035,-0.3192894832299264,normal
2024-01-01 00:00:07.860,-0.3766527982260042,-0.14740508925464493,7.764594081951327,-0.01795588114890603,-0.7516810625489946,0.3697717343805056,normal
2024-01-01 00:00:07.870,0.37193647074618624,0.32688707384866345,8.344605668905448,0.13588012853654052,-0.7796810536465612,0.15674911872553918,normal
2024-01-01 00:00:07.880,0.3496301486477109,0.3476101476123182,9.10859373661117,-0.04179438085917493,0.15783365096445376,0.2983094281225161,normal
2024-01-01 00:00:07.890,-0.34540227880726454,0.421976763385657,9.225683905064557,-0.7026262376743105,0.5668341580097889,-0.4389268543197233,normal
2024-01-01 00:00:07.900,-0.44219456624824083,-0.261033890036258,10.050590804845923,-0.03567021734638977,1.8451961296383816,0.27156978141021887,normal
2024-01-01 00:00:07.910,-0.3000200251018738,0.12968642417905546,9.575144732833808,0.25280328978734073,-0.45848371254728193,0.41735792863757576,normal
2024-01-01 00:00:07.920,0.3388457380402673,-0.1736068369492492,9.817586747706272,0.05085542085203388,1.0602147801096429,-0.3471827512143702,normal
2024-01-01 00:00:07.930,-0.09337823018776942,0.1233073620799929,9.879361783800265,-0.32922402613508267,-0.9947938585117229,-0.0788551099924676,normal
2024-01-01 00:00:07.940,-0.24260935750936,-0.4783915292518907,9.478790245417043,-0.09431890014708567,-0.02837797066697261,0.23593490636526723,normal
2024-01-01 00:00:07.950,-0.008511723823289344,-0.062227387808533555,8.880809776885291,-0.5845090765398945,0.3064351811422265,-0.26399570492510194,normal
2024-01-01 00:00:07.960,0.36125744847074853,0.32340258968749686,8.655325548945848,0.22514206730270975,-0.5500242444847014,0.3217965913334778,normal
2024-01-01 00:00:07.970,-0.4168651115717486,0.059519440204649776,8.246911439692466,-0.2703321609975788,0.046587378973032854,-0.6102664931134608,normal
2024-01-01 00:00:07.980,-0.11514053416595156,-0.7286805138187543,7.294390872104042,0.23456142323190418,-0.042738496757310875,0.40660279234105573,normal
2024-01-01 00:00:07.990,-0.4150426859769439,0.2989157355199198,6.38530695513717,0.23742778522901167,-0.10296408397684348,-0.2219371929143171,normal
2024-01-01 00:00:08.000,0.6516466491989549,0.10826235768098459,5.764157660733655,0.3638372760248264,-0.3715870306760914,-0.258719095362049,normal
2024-01-01 00:00:08.010,0.5454958603105184,-0.08362423778836708,4.516646197679881,0.17349067294577286,-0.17026587289958212,0.28741952376063684,normal
2024-01-01 00:00:08.020,0.2853486237400157,-0.0024236724784786664,3.9173699960758466,0.2547238003927564,0.39968562090140086,-0.13572035914155256,normal
