timestamp,acc_x,acc_y,acc_z,gyro_x,gyro_y,gyro_z,label
2024-01-01 00:00:00.000,0.14591442120966625,-0.0625414840146576,0.14603373430515862,-0.04290458553764519,-0.8083551697219257,-0.00966256526819113,normal
2024-01-01 00:00:00.010,-0.14321759356503638,-0.2881232648241012,1.11186890070523,-0.8488709581870147,-0.5681756351286406,0.16470890299331223,normal
2024-01-01 00:00:00.020,0.20080188589625678,-0.15482079845945618,2.1693845385642385,-0.2830863532885071,-0.9520830550958167,0.3985047655533427,normal
2024-01-01 00:00:00.030,-0.4161883633775337,0.004413073224774411,2.995711601855951,-0.22194957346776473,-1.0454732744383664,0.14236188985322495,normal
2024-01-01 00:00:00.040,0.4997665288975155,-0.20127659161258546,4.369157554954502,-0.2767946786829795,-0.5186471892826995,-0.35939232176188607,normal
2024-01-01 00:00:00.050,-0.05727945516064505,0.11392010803943398,5.271806629505805,0.011142300548214846,0.5185929035582804,-0.08065148592423743,normal
2024-01-01 00:00:00.060,0.1603046580825279,-0.060160538289899194,6.257128801668559,0.26616887313560544,-0.34903591274774265,0.061215526060174184,normal
2024-01-01 00:00:00.070,0.23296553570118467,0.4891259531483283,7.012985154941284,1.1481641850519446,-0.2877306790116722,-0.05932200801490543,normal
2024-01-01 00:00:00.080,0.07342511037369247,0.7415836948733917,7.689819107757259,-0.2965197734349402,-0.13543139189681547,0.09589935338816948,normal
2024-01-01 00:00:00.090,0.0539431265792829,0.026885338243581938,8.525033636910438,0.5384270497378545,0.20820333647513806,0.03999175656968724,normal
2024-01-01 00:00:00.100,-0.40247540682267413,0.09241673350395728,8.915891454988946,-0.6769143328676679,-0.3761452178755161,0.2012983938035844,normal
2024-01-01 00:00:00.110,-0.0545943740025774,-0.2248997038771413,9.10543603405923,0.8954720968425826,1.0969681776722926,0.3798980934567384,normal
2024-01-01 00:00:00.120,-0.16264826025977136,0.07391535262996216,9.824866607591495,-0.7197290926328024,-0.08784852050879173,0.682266522569007,normal
2024-01-01 00:00:00.130,0.0005938904498908353,0.15696456667410497,9.73485272247975,-0.08151816801016973,-0.7171629185551983,-0.058152908627329344,normal
2024-01-01 00:00:00.140,-0.8099427389376477,0.21892009617405755,9.934944299194285,-0.9697731582122366,0.4868759842546077,-0.007994120993423455,normal
2024-01-01 00:00:00.150,-0.46716782013136504,0.39976781103942177,9.611245496923155,-0.6766658446926841,-0.36624310766853,0.35825448333302706,normal
2024-01-01 00:00:00.160,-0.08783778829548797,0.13716727804200818,9.487828710476757,0.5587563814728426,0.13858860897413008,-0.011508697891823415,normal
2024-01-01 00:00:00.170,0.0777190138348181,-0.4077780875666938,9.257342245782745,0.08004263181394616,0.10011525458839263,0.10827159018892309,normal
2024-01-01 00:00:00.180,-0.060326646451643685,0.43335539378532895,8.72372856405126,-0.10640100690474079,-0.5328878012066429,-0.1087188940157249,normal
2024-01-01 00:00:00.190,-0.3304497153185505,0.0024101464139680714,8.52928418268042,-0.4509775234550652,-0.7438155313441746,0.6187244937329938,normal
2024-01-01 00:00:00.200,-0.17785009563012125,0.1323932873253728,7.2987637643141925,-0.8234620959149664,-0.22120167904768542,0.13509599736954922,normal
2024-01-01 00:00:00.210,-0.12870220540460406,-0.010936836816472078,6.943795594200799,-0.5363004684270958,0.41285417346306946,0.2516482489596709,normal
2024-01-01 00:00:00.220,-0.9173125943709677,-0.09246523035637726,6.175444642829399,-0.8319489270161429,0.19911834616222215,-0.05469068509500077,normal
2024-01-01 00:00:00.230,-0.23601041613007484,-0.2735601752893537,5.083864837726687,-0.5686731489394395,0.701846868270554,-0.07635182193540042,normal
2024-01-01 00:00:00.240,-0.22853190776983395,-0.18817685350261582,4.191523423448669,-0.5395070236723939,0.419233946855983,0.32662054020231995,normal
2024-01-01 00:00:00.250,-0.20134241997742833,0.12236364575694214,2.968336057588984,-0.07346610336676328,0.09427550743670457,0.16357318296123027,normal
2024-01-01 00:00:00.260,0.09552410778762647,-0.2531536401106588,1.9351075990350728,0.13672871716836632,-0.12673804084115875,-0.034510067979766676,normal
2024-01-01 00:00:00.270,-0.3392912481552021,0.18323261952382178,0.9504456309860794,0.5823996049424819,0.09644226258732615,-0.2132042310134679,normal
2024-01-01 00:00:00.280,0.1336101403580978,-0.1408741124524629,0.34972127468411557,-0.38739037429033485,0.6150421188845028,-0.11477424510225892,normal
2024-01-01 00:00:00.290,0.09564504005707361,0.1875343513485872,1.609092951788527,-0.4288847484749703,0.42103955159830236,0.3104099410620281,normal
2024-01-01 00:00:00.300,0.13157547118784982,0.0403716754357489,2.3786055164886157,-0.022928480283886356,0.27048937338796686,-0.37686605718911553,normal
2024-01-01 00:00:00.310,0.07614946929442477,0.22913553860489425,3.1238821333426965,0.5626291899221582,0.43565995045015393,-0.3291268174390412,normal
2024-01-01 00:00:00.320,0.3150527321639463,0.0965034983906304,4.321243846874007,-0.30057643159972863,0.48138082521843784,-0.12209317700329075,normal
2024-01-01 00:00:00.330,0.6013381581343736,0.6731849471098921,5.1905097992402816,-0.26333412780417015,-0.4251849955762299,-0.879642697081061,normal
2024-01-01 00:00:00.340,-0.05929070570726363,0.27042113649492816,6.341683959915251,0.10481840123155307,0.5718322296263904,-0.6913863590822396,normal
2024-01-01 00:00:00.350,-0.24364183028182168,-0.31228957438972593,7.341968809625202,0.1229050724862233,0.2752776459341526,-0.4284776099242844,normal
2024-01-01 00:00:00.360,0.09504660183475441,0.18636098849432717,7.902812675142406,-0.09426125689916018,0.7102375296164815,0.03603532719642088,normal
2024-01-01 00:00:00.370,0.627758072403469,-0.00587944879178079,8.434151840962887,0.057266480532709337,0.9331627238276657,-0.11545162843173597,normal
2024-01-01 00:00:00.380,0.011582634758754777,0.39791207288650726,9.100469915182858,-0.5410154620021913,0.2282958790159651,0.5097142637328469,normal
2024-01-01 00:00:00.390,-0.06674838070775378,0.1704905600303041,9.318301996016206,0.0613419657423174,0.20796072522680167,0.027452304765097756,normal
2024-01-01 00:00:00.400,-0.19195341541056785,0.23209202243650814,9.45079633248714,0.3815071018938572,0.1678071620317376,-0.15652689263874514,normal
2024-01-01 00:00:00.410,-0.3222479912553806,0.005482423230686967,9.819152481794822,-0.6264111911719321,0.46139723554241036,-0.47972300122401446,normal
2024-01-01 00:00:00.420,-0.3285506200765627,0.11420826627348692,9.584269026299635,0.9620779672555042,-0.325178612901306,-0.04064546331251363,normal
2024-01-01 00:00:00.430,0.8588518502743294,0.2934113716384136,9.613216258151608,-1.836205016786721,0.34787818102781326,0.08789203812843649,normal
2024-01-01 00:00:00.440,-0.2128867996100145,0.11696110524179588,9.42619558780222,-0.1863666184433272,0.9570318392949588,0.41726979673404474,normal
2024-01-01 00:00:00.450,-0.3582673739357772,0.11311476027655797,9.346476154144176,-0.23658031791242828,-0.5892913665752759,-0.33700314514941304,normal
2024-01-01 00:00:00.460,-0.07525299673543717,-0.2519931678118863,8.542376118487718,0.6050672460802486,0.3607209324391019,-0.2048997551378842,normal
2024-01-01 00:00:00.470,0.22181716965885673,0.053955344133148,8.26083173615745,1.5775637598241392,-0.3172345781872101,-0.26832706573299214,normal
2024-01-01 00:00:00.480,-0.3263991073080201,0.23950035956268514,7.7038646580575065,0.6210726964949992,0.3491710334864242,0.1316594353965974,normal
2024-01-01 00:00:00.490,-0.21972979026729478,-0.14609718200659022,6.520550314660715,-0.1787357242263007,0.023871499805149368,-0.3081782854543415,normal
2024-01-01 00:00:00.500,-0.021961372230479205,0.029775457142284457,5.854133655931909,0.8768214752212158,-0.02343215446503723,0.7985586044494628,normal
2024-01-01 00:00:00.510,0.24601052884495994,0.0007644187808622396,4.754757025615826,-0.056616895918582925,0.2910561421475218,0.23722951204757128,normal
2024-01-01 00:00:00.520,-0.3723379900936275,0.09592588462909027,3.814065605717775,0.4276057319729159,-0.4793395591587302,0.7243794689481868,normal
2024-01-01 00:00:00.530,0.058665086418292975,0.27948698037353664,2.794472712364956,-0.7262155127153516,1.022115084093461,-0.001175488573548799,normal
2024-01-01 00:00:00.540,0.5424155004933057,0.6232356076094153,1.667419826835249,-0.5862443839457588,-0.533391605951335,0.32466855685293877,normal
2024-01-01 00:00:00.550,-0.29035324911890126,0.03148717036045823,0.5857961660261395,-0.5093337879594345,-0.5614086997024603,-0.15966661050061,normal
2024-01-01 00:00:00.560,-0.35385645884250216,0.07870835829435306,0.3750188533193005,-0.2881498928166834,0.372949835316234,0.08527611148169656,normal
2024-01-01 00:00:00.570,0.10038650458465874,-0.04747273241315719,1.550033578343212,0.4675375385071912,0.43842365944669426,0.03470543562452238,normal
2024-01-01 00:00:00.580,0.21711350127427953,0.13288453888980306,2.7299458083868906,0.4631802870888165,0.3831378471203684,-0.3348039366820248,normal
2024-01-01 00:00:00.590,-0.11307773639312504,-0.05655332816442253,3.7257434461984813,-0.9679873798675349,0.14358343397155124,0.0023960009077914476,normal
2024-01-01 00:00:00.600,0.0004697549141244431,-0.07336409105583125,4.981371636556311,0.14200977785138766,-0.384682145362133,0.08097680902471127,normal
2024-01-01 00:00:00.610,0.16941894655346396,0.06524240314891194,5.580345683709121,0.009219722606341171,0.022057865693841286,0.022584563796928553,normal
2024-01-01 00:00:00.620,0.2357154441424866,-0.3555988388235845,6.49582311440563,0.27187809759166814,-0.6816239618876193,-0.46324682376130033,normal
2024-01-01 00:00:00.630,0.015754454745385973,0.14821729773767237,6.9774225281206,0.4558062937150668,0.10636309092925825,0.2802440447846905,normal
2024-01-01 00:00:00.640,0.24309159886175147,-0.3236161429768679,7.993100705318842,-0.4018138382185037,1.1560315895496622,0.02795753891369172,normal
2024-01-01 00:00:00.650,-0.5415817107871395,0.5095199508605568,8.539274563146334,-0.6439240584440316,0.21365781658349456,0.13909475523976686,normal
2024-01-01 00:00:00.660,0.06990350410445821,0.06082724787795437,9.08164724503432,0.7052500143869642,0.39086313078657486,0.70586949618685,normal
2024-01-01 00:00:00.670,-0.25302515445034857,-0.16202647606855125,9.449450022436881,-0.32746003109958854,-0.18200545249298228,0.8547514459774082,normal
2024-01-01 00:00:00.680,0.21122151620648652,0.4664594209460068,9.766148515991656,-0.8571855847357372,0.9333319278449831,0.29938465854254875,normal
2024-01-01 00:00:00.690,0.03784275658778644,0.10081095109546129,9.840932251844293,-0.9644503750203365,0.8143225865860021,0.2042257509317409,normal
2024-01-01 00:00:00.700,0.5053590873440399,-0.07331988553592513,9.734635980354044,-0.39559359719593484,-0.8347120902537741,-0.02123111984717938,normal
2024-01-01 00:00:00.710,0.07183822140934622,0.5257510335231115,9.725335116342164,0.7849432290309092,0.3434168917891436,-0.047365887316982457,normal
2024-01-01 00:00:00.720,0.07753620532956294,-0.031910363517357675,9.534143296616142,0.6635202147352325,0.5347796449191154,0.23215918239764924,normal
2024-01-01 00:00:00.730,0.12603322527016647,-0.5638031942034251,9.003029106449647,-0.572535172973587,-0.5877365401860489,0.2994678258428266,normal
2024-01-01 00:00:00.740,0.2534640488189106,0.21230417012089303,8.48820030139084,0.3923322517224861,-0.1324278049307849,0.03491674918966135,normal
2024-01-01 00:00:00.750,-0.06161783480561307,0.40219902442409394,7.785663341954634,-0.5303486701866653,0.21490997581977345,0.3078583256069853,normal
2024-01-01 00:00:00.760,-0.3366708103558283,-0.768210986900839,7.366933416970266,-0.1777049657343232,-0.19818430582470825,-0.6049544125469938,normal
2024-01-01 00:00:00.770,-0.2604551341592268,0.13523425056146526,6.527817697086111,1.1531154835905293,0.4410146479620752,-0.22712193884780627,normal
2024-01-01 00:00:00.780,0.17588902680695762,0.392596357475511,5.394838140461416,1.3212755782466072,-0.6074074974387899,0.054203876032540434,normal
2024-01-01 00:00:00.790,0.5353238204927472,0.08616664905578271,4.696276267478215,0.7939210221364238,-0.08908541023810648,0.06009869074632657,normal
2024-01-01 00:00:00.800,-0.22541666322812848,0.5731637665733884,3.49837862294224,-0.08419194766906783,0.49505995507464917,0.5866271422472897,normal
2024-01-01 00:00:00.810,0.25517907255005695,-0.6469518567801873,2.5037385363014044,-0.6765429035155964,-1.5310293569575717,-0.10713167188327863,normal
2024-01-01 00:00:00.820,-0.3947387023860421,0.1156754914024915,1.41990251105316,-0.8837202363346021,0.13690917741444478,-0.30016352691598486,normal
2024-01-01 00:00:00.830,0.24160020066396717,-0.6627638743139672,0.22478309704745297,-0.6199245163846533,-0.080863671950195,-0.200060130598619,normal
2024-01-01 00:00:00.840,-0.10912760524522318,-0.09200591392795747,0.9234221308443756,0.20318166196741314,-0.022498264401965836,0.08116258166574826,normal
2024-01-01 00:00:00.850,0.015541754081789799,-0.1864964404960421,1.6381859659355091,-0.28620490996873266,-0.7236620768909794,0.2005660200281552,normal
2024-01-01 00:00:00.860,0.4249998959614946,0.06908286850294384,2.8776930473094047,1.0195359069746253,-0.17902309018875648,0.38433528273129663,normal
2024-01-01 00:00:00.870,0.6620663057917837,0.23842886262785273,4.0207821494619544,-0.37545944956353067,-0.24678237322160398,-0.2441966027151926,normal
2024-01-01 00:00:00.880,-0.07494964450383657,0.27958290418337545,5.168942489022104,-0.4625896537368245,0.39982350822791063,-0.21943304038156883,normal
2024-01-01 00:00:00.890,-0.2863693075519208,0.32530152876053914,6.260619046443296,0.15301247142168992,-0.40959928980327825,-0.4870638847148507,normal
2024-01-01 00:00:00.900,-0.25156877540018785,-0.27425761254356024,6.578818861048254,0.2872112799696112,-0.08558775398831671,-0.426591686789448,normal
2024-01-01 00:00:00.910,0.13062069856444739,0.0006222006510163202,7.6727041408406835,0.4559084698668837,0.5298982858850604,0.12424711497326402,normal
2024-01-01 00:00:00.920,-0.02504779033816009,-0.0638024572695017,8.26214895776853,0.6030415514485049,0.7573788263736635,0.8215075304599574,normal
2024-01-01 00:00:00.930,-0.1295334519771276,0.03723810037764557,8.616300671293448,-0.7801245203359609,-0.5519924518143056,-0.05631971936330393,normal
2024-01-01 00:00:00.940,-0.26354396817710424,0.3301189076257726,9.17785265192482,0.681854026093592,0.03975011747517589,0.12856198871326005,normal
2024-01-01 00:00:00.950,-0.028629380688495548,-0.058442967758691754,9.734008840436404,-0.37893968788733234,0.33885444163497414,0.13448032909786903,normal
2024-01-01 00:00:00.960,-0.17281356369727094,0.149707553228482,9.823648791102087,-0.10284346336542641,0.04180732766500445,0.7527347127725565,normal
2024-01-01 00:00:00.970,0.34811594407516344,-0.395519599620662,9.865223038756621,-0.13903771214411392,0.915097103921443,0.6923233560793548,normal
2024-01-01 00:00:00.980,-0.08010989261110699,-0.17878713192895354,9.746749138344086,-0.7647539506464112,0.4010134270071861,0.13916280094922076,normal
2024-01-01 00:00:00.990,0.4636997905120973,-0.12924661476118082,9.738322546431752,0.04405435874124377,0.12300883173045964,0.052917648499660144,normal
2024-01-01 00:00:01.000,0.3043900886622242,-0.1274360534943444,9.288373945012383,0.7887769980861218,0.13442331146920908,0.12064806665236706,normal
2024-01-01 00:00:01.010,0.2683941939192132,0.10498213578780456,8.81769775481663,-0.746606545370869,0.6603704510910491,0.04364514428068054,normal
2024-01-01 00:00:01.020,0.11065364810841087,0.48629983946606026,8.642520689799312,0.05371499777085395,0.25588644456666004,-0.400707580414187,normal
2024-01-01 00:00:01.030,-0.3688718158080026,0.29897111065353,7.686946118984635,-1.4629800610579486,0.5930882821826918,0.010270224642410185,normal
2024-01-01 00:00:01.040,0.27494456046834126,0.16268418952392522,6.993316862225351,1.0038375572383675,0.42902041003902314,0.04680305360026974,normal
2024-01-01 00:00:01.050,0.40366238484649664,0.5924237058631867,6.220337216413535,-0.4963139718821728,-0.1834486833391048,0.5095145696128768,normal
2024-01-01 00:00:01.060,-0.045436040031063975,0.2625696464248323,5.255883987344413,0.12487913523240957,0.32190954283032175,-0.672686724822483,normal
2024-01-01 00:00:01.070,-0.39262958156137984,-0.12408185267483086,4.433772252842896,0.0037318925263018217,0.163845801763274,-0.1702833108304236,normal
2024-01-01 00:00:01.080,-0.33565257575723734,-0.005951825332620164,3.12683457342829,0.033610670234602374,0.38024668032042624,0.3363092424613371,normal
2024-01-01 00:00:01.090,-0.2925676150060573,0.10591764851254291,2.237102762578142,0.36599839535503126,0.9892453197781437,0.23897810045043472,normal
2024-01-01 00:00:01.100,-0.33488488024629914,-0.17212891241140688,1.1730724605290874,0.5020618970870792,-0.4453974155628164,0.17417925258932895,normal
2024-01-01 00:00:01.110,0.5171700109980885,-0.20257189155657807,0.18740506274199636,0.49529999263865937,0.6428254739458124,-0.010831750386988699,normal
2024-01-01 00:00:01.120,0.04572172553249854,-0.40388039370521955,0.9134716589834665,0.21203718277501055,-0.3768462496323728,0.5102885093799941,normal
2024-01-01 00:00:01.130,0.3351050872508086,-0.37132266057458085,2.1015733764468805,0.2395621022004992,0.33177409410941483,-0.29494120144161234,normal
2024-01-01 00:00:01.140,-0.21443493394267463,-0.28298463610682917,3.2687607528734803,0.570960265018731,-0.7879346902481813,0.19072138294498447,normal
2024-01-01 00:00:01.150,0.288892702968961,0.3676890063865763,4.0045806243443876,-0.21331136347087296,0.9062376613427596,-0.311184997765124,normal
2024-01-01 00:00:01.160,0.18960235378349954,0.2554721099559817,5.19488249946533,0.4974419909778502,0.4374430440000529,0.36356183266657377,normal
2024-01-01 00:00:01.170,0.3117970511629348,0.7406613671655203,6.118276279685918,-0.6169690858270453,-0.5548206631661505,-0.07923960472591793,normal
2024-01-01 00:00:01.180,-0.19776484457812826,0.03853989810239576,6.8365769179933125,0.8118504085825149,0.9286049384623294,0.04859920654776137,normal
2024-01-01 00:00:01.190,-0.050830398642673906,-0.08303567751047347,7.615556193214793,-0.826333485831409,-0.4910633563845681,0.04292252522935005,normal
2024-01-01 00:00:01.200,-0.26022206207074255,0.24125365787670577,8.230432230711116,-0.1964054928920936,0.4476689641142007,-0.1965413909227201,normal
2024-01-01 00:00:01.210,-0.4636457445612907,-0.3281307531829583,8.786309926631533,-0.2670026829850198,-0.7321350250509435,0.5317447361852599,normal
2024-01-01 00:00:01.220,-0.3573441665747571,-0.5153993532869647,9.28603706027065,-0.6362284406817341,1.687049543728998,0.8808119430948996,normal
2024-01-01 00:00:01.230,-0.04539926445537456,0.2505272849473127,9.538815833642118,0.7754235704977585,0.38471906050809995,0.03618545724864979,normal
2024-01-01 00:00:01.240,-0.1258257012931445,0.36773492544540604,9.788876795791888,0.9016489592045878,-0.5075195617616413,-0.1721647621324807,normal
2024-01-01 00:00:01.250,-0.2796646824156779,-0.5677012819469247,9.6888150712688,0.05176959797537874,-0.4096454660674739,0.0982926610401473,normal
2024-01-01 00:00:01.260,-0.23554871630411528,0.09764748277977574,9.581974705390834,-0.025549133591942615,1.1740444343335772,0.30684693013159065,normal
2024-01-01 00:00:01.270,0.2721882346348097,0.39451483400294013,9.442898156027265,-0.39687788567039234,0.28057428592485206,-0.2273688623241157,normal
2024-01-01 00:00:01.280,0.15861083714608856,0.034146270720810876,9.027371537835297,0.3336450807758034,-0.36037692850158204,-0.38350530697267804,normal
2024-01-01 00:00:01.290,0.25209908112970414,-0.44335184394161903,9.018819955079165,-0.026683128823906988,-1.5844959056822783,-0.09703985816990802,normal
2024-01-01 00:00:01.300,0.1445869600219288,0.2128884795667289,8.497680321151918,-0.5603621878215157,-1.5253173997793723,0.056392683312767145,normal
2024-01-01 00:00:01.310,0.016160534922286206,0.43100934332839363,7.805682611483644,1.019446024512077,1.0097822606398168,-0.27103965388699003,normal
2024-01-01 00:00:01.320,0.30581591713460404,0.03112197043654099,6.989322317414796,0.8967173574648004,0.3947603599847068,0.2910372359999014,normal
2024-01-01 00:00:01.330,0.008839610001198149,-0.7960860838061266,6.133555535031668,-0.666882346707877,-0.014801329766618703,1.0492761681667042,normal
2024-01-01 00:00:01.340,-0.06585626136466975,-0.1804341117295353,5.311797598886332,-1.5178717280009333,-0.9295732180854456,-0.12479475492897546,normal
2024-01-01 00:00:01.350,0.06417181451965238,-0.6565652531930838,4.255771958029554,0.02393207899427592,-0.03317643683066749,0.17412442105821674,normal
2024-01-01 00:00:01.360,0.22187597057734343,0.22990578047175295,3.3792636798488,-0.48031102878393994,0.010381225118719584,0.40327093316427703,normal
2024-01-01 00:00:01.370,-0.25582677882243965,-0.32485615140785296,2.172728991473607,-0.6438398661078737,-0.1747133723881535,0.046239594425783986,normal
2024-01-01 00:00:01.380,-0.0863469355227277,-0.29689463034828445,0.9592386971995637,0.5919644982356123,-0.4740126627693534,0.6682250667811154,normal
2024-01-01 00:00:01.390,-0.3225627562434185,0.06495909544407559,0.1739559579447928,0.08302166231478102,0.9402948054958059,0.592451678009427,normal
2024-01-01 00:00:01.400,0.04989677809902839,-0.0035426206988988535,0.9425622459861505,0.22616195488303015,0.587701141586626,-0.34903897827345554,normal
2024-01-01 00:00:01.410,-0.0707979710941559,0.4555487799669999,2.2718473148525513,0.9577886966935412,0.3617438913739774,0.4949294706460115,normal
2024-01-01 00:00:01.420,0.4391439145804843,-0.40454639608331716,3.4210745081999594,-0.022332727009605348,-0.4637026214907712,-0.29209677316319455,normal
2024-01-01 00:00:01.430,-0.3114210222244117,-0.1534579619742142,4.37311330616467,-0.7951704082491927,-0.003708454272850777,0.1826908378121315,normal
2024-01-01 00:00:01.440,0.012579948908713414,-0.10403555898400971,5.361504474306436,0.047411134726178854,0.5744933612973481,0.44624732427796976,normal
2024-01-01 00:00:01.450,0.5176875368706018,-0.4336420860629811,5.923389566355564,-0.5798773152939537,0.82691457131937,-0.11767098443992557,normal
2024-01-01 00:00:01.460,0.6521305215104652,-0.39655750688356967,7.3062288813038,0.2796127356305953,-1.0680939808235834,-0.4658295624841839,normal
2024-01-01 00:00:01.470,-0.7052960495883784,-0.12753529116646678,7.930985736052577,0.1901330091011212,0.5464071378067628,0.1885530525726863,normal
2024-01-01 00:00:01.480,0.13513477594613832,0.47206419587481174,8.65549003992475,-0.3970214604465655,-0.2171404696549503,0.10063091006398035,normal
2024-01-01 00:00:01.490,-0.46410827813373534,0.38968613022452836,8.837745100470839,0.47304418136593906,-0.0023444671851627088,-0.348501074199006,normal
2024-01-01 00:00:01.500,-0.24235303939387978,0.12301022597230234,9.435342526633267,-0.3499081104340198,0.2911063904649557,-0.010835505644374199,normal
2024-01-01 00:00:01.510,0.1766767116154985,0.33309749114810283,9.73674585364529,-0.6223673136609504,-0.5325829778771303,0.3445743851268965,normal
2024-01-01 00:00:01.520,0.15369576847524133,0.24809569225346423,9.659935209673012,0.09077398092544428,0.13810537432751754,-0.3681351895902819,normal
2024-01-01 00:00:01.530,0.6968569319427766,-0.7254107416324002,9.742315892157931,0.3635986960301695,0.16178566752404702,0.1121381604702292,normal
2024-01-01 00:00:01.540,-0.11695537603589287,-0.09204736590259377,9.417853263078717,0.9362498361220797,-0.04288948102880884,-0.16057367943273207,normal
2024-01-01 00:00:01.550,0.1891541103709217,0.16655234507980599,9.84640165720522,-0.7778442511838274,-0.5568079499805763,0.38242012451075363,normal
2024-01-01 00:00:01.560,0.20322930439346282,-0.08474309246312002,9.224955995561846,-0.6611168414676789,0.4980799776151761,0.3340115560144542,normal
2024-01-01 00:00:01.570,0.291938344166733,-0.34632429007764803,8.622106784818419,1.5717716479079942,0.044153001170443316,-0.0025414704277863776,normal
2024-01-01 00:00:01.580,-0.12096769668500916,-0.43682580633712637,8.047838463292363,0.44118538884353026,0.1241753442569197,0.00661137340286533,normal
2024-01-01 00:00:01.590,0.3408062710680384,-0.2636503121440414,7.341734375246108,-0.09844608259245889,0.4597337376450272,0.3473072481566378,normal
2024-01-01 00:00:01.600,-0.3787579085465091,-0.12807218707535234,6.568554732644406,-0.274413369745678,-0.7529183941264396,0.19149648617392176,normal
2024-01-01 00:00:01.610,-0.18885238979560376,-0.5120571265897631,5.780666665763769,0.24653698076084743,0.5570828260656275,-0.6067165695544501,normal
2024-01-01 00:00:01.620,-0.0023813268623758444,-0.3515259155881495,4.904363734235248,-0.5631944590525306,-0.4669426539422325,0.4367210864213902,normal
2024-01-01 00:00:01.630,0.24829385475121424,-0.40322305076309195,3.7564439846873054,-0.8364131552776176,0.01167136839488981,-0.05402776699245992,normal
2024-01-01 00:00:01.640,-0.14891009340179043,0.2539285256006444,2.6757768608999215,0.7001781681144973,0.2179065405059756,-0.48719372518478443,normal
2024-01-01 00:00:01.650,0.1206452503797989,0.12089177949602732,1.9222450981117496,-0.4195434196371798,-0.5556994174360864,0.06629209387270044,normal
2024-01-01 00:00:01.660,0.5999999908078852,-0.5806468018967123,0.8035751606738707,-0.8223616362824243,0.12978087932556065,-0.26314643431486934,normal
2024-01-01 00:00:01.670,-0.35052330420945665,-0.12248976962557784,0.37774463044908685,0.6767235532698188,-0.45088294928738504,-1.1408180601938873,normal
2024-01-01 00:00:01.680,0.11247755291328836,-0.07468136136970428,1.5183600484229236,0.22226730933347894,0.2532198864613195,0.13605041307987997,normal
2024-01-01 00:00:01.690,0.05813641416397594,0.31502276948321556,2.750682802715654,-0.10575739081671605,-1.4305478954545097,-0.7047887305111218,normal
2024-01-01 00:00:01.700,-0.7625437397256742,0.0663827039360432,3.565365015054494,0.07299099283732581,-0.860913731043934,0.09270355728759064,normal
2024-01-01 00:00:01.710,-0.4038000972989249,-0.17376796438440176,4.863523795348715,-0.9896420624898398,0.13725657818235348,0.08292658633304141,normal
2024-01-01 00:00:01.720,-0.11331376071701466,-0.2912480585518379,5.44532718656931,0.6849374377929145,1.2537855978672203,0.1495532091636173,normal
2024-01-01 00:00:01.730,-0.033773522990191256,0.40764766007344827,6.203561113562811,-0.011335077618207016,-0.7149361636717951,0.1900028029846693,normal
2024-01-01 00:00:01.740,-0.41602822254400335,-0.07297165470717282,7.153898616081727,1.018657414927614,-0.10466053068725173,0.16525019206171654,normal
2024-01-01 00:00:01.750,-0.1023573210373717,-0.19386556351933643,8.11191396708167,0.9178692580483663,-0.6726961741403333,0.39326437659083163,normal
2024-01-01 00:00:01.760,0.08843911475192671,-0.20460123108101858,8.497300061637684,-0.02398008540838321,0.08761326945517788,0.3258198102048065,normal
2024-01-01 00:00:01.770,0.08869476467281139,-0.0020138994641904643,9.042823202773159,0.05184264535312969,0.17016051282874914,-0.0571454240836005,normal
2024-01-01 00:00:01.780,0.14613513107757592,-0.5627150807321879,9.325043102661308,0.5213323224178356,0.1872929368850248,-0.06866873790291365,normal
2024-01-01 00:00:01.790,0.039382332457478304,-0.256003123840629,9.662578495832056,0.6843771759665069,0.4650701212224595,0.0005058285710493097,normal
2024-01-01 00:00:01.800,0.4475366131477622,0.23716013311595005,9.787869530699682,-0.327576427516755,-1.123512286426495,0.49951280854411084,normal
2024-01-01 00:00:01.810,-0.3739889303058742,0.08450146508114911,9.81016382617706,-0.6291353812827617,-0.31139714577268013,-0.44315284227159707,normal
2024-01-01 00:00:01.820,0.3800851175554337,-0.09296161695891757,9.707620468410504,0.35159716679248154,-0.31835033675555413,-0.17250756524138713,normal
2024-01-01 00:00:01.830,0.3346027211997631,0.2323752984011587,9.369895868718592,0.2760176514770369,-0.5616509611071411,0.17280035287149484,normal
2024-01-01 00:00:01.840,0.1411996389614919,0.0865918061729097,9.067832789634162,-0.4215773343105779,0.4913714787293326,-0.09855803007878955,normal
2024-01-01 00:00:01.850,0.427596124695013,-0.18946964702678792,8.450219614148144,-0.3404779217464865,-0.7211053886116325,-0.13338370476719577,normal
2024-01-01 00:00:01.860,-0.17707795056785355,0.40577826875191897,7.7582854530805685,0.5499903855080649,0.26481013704736717,-0.16209818968655504,normal
2024-01-01 00:00:01.870,0.29219270816284304,-0.02094294550292798,7.28265585196161,0.004907204926311643,0.7864308124860031,0.050658585215200336,normal
2024-01-01 00:00:01.880,0.2886606639945264,0.013072111963506881,6.6674322240066575,-0.5050642884118928,0.00013698596400464746,-0.03382773581808654,normal
2024-01-01 00:00:01.890,-0.4189266237934708,0.2777841871495131,5.74203206344029,0.3595460821407178,0.18828889632322335,-0.06476833937751968,normal
2024-01-01 00:00:01.900,-0.11895776213483597,0.4740262088594456,4.621653712460842,0.3003000209500495,-0.34229651595373567,-0.20820244656158732,normal
2024-01-01 00:00:01.910,-0.3877060542750251,0.5926866225864896,3.5716776259307057,-1.0277337158225142,-0.181640853010595,-0.16345036876883592,normal
2024-01-01 00:00:01.920,-0.031073763952323558,-0.2649420230836258,2.6928234167549365,0.517812606476925,1.1770361593500003,0.504097821159707,normal
2024-01-01 00:00:01.930,-0.28346682331641687,-0.646888322465937,1.574400248199254,1.1191650948595417,0.05674719763402627,0.19672897901366876,normal
2024-01-01 00:00:01.940,-0.17536311885772002,0.009919141532585144,0.40241579664706256,0.24306984429798886,0.5289437473779022,0.6800113436088043,normal
2024-01-01 00:00:01.950,-0.2510198242943915,0.2580734501942823,0.9715630657319583,0.9749023585112562,0.6163472504940446,0.20562808085297193,normal
2024-01-01 00:00:01.960,0.24356460176486028,0.09778237065035505,1.9159169128133184,-0.08528723450678079,0.4340851987710703,-0.08471622064052742,normal
2024-01-01 00:00:01.970,0.1996197660884254,-0.21980141501505193,2.5225090166969526,1.2353568705012716,0.6132976249103341,0.4328578197109896,normal
2024-01-01 00:00:01.980,0.3281256689078302,-0.49979288330226096,3.88198006120637,-0.24687387391932214,0.2782368807940408,0.09765436103413484,normal
2024-01-01 00:00:01.990,0.2563684696829268,-0.022614857918350016,4.733512432419386,-0.14286081051458752,0.4978984074134125,-0.5223420547517009,normal
2024-01-01 00:00:02.000,-0.2635752992209182,0.315661723231407,5.472099508404564,0.29829484506435233,0.20917783823612682,0.22594431672265441,normal
2024-01-01 00:00:02.010,-0.12335612682200427,-0.15140449241403628,6.632933844480145,-0.13443663488013097,0.23169325352556397,-0.40271192009004625,normal
2024-01-01 00:00:02.020,0.03715863417473576,-0.07089199880437602,7.3030240145905125,0.1631281898720138,0.1667816960706208,-0.40618421392585896,normal
2024-01-01 00:00:02.030,0.12897147671598164,0.4947302518426422,7.837998195546181,0.006315785754895519,-0.26312820605264947,-0.09204339523862685,normal
2024-01-01 00:00:02.040,-0.09812252420333768,-0.1214703459569617,8.6298943884744,-0.3642692811806278,-0.6817228227683094,0.33557966123850197,normal
2024-01-01 00:00:02.050,-0.08666574225310177,0.15404025466859808,9.161257623168519,0.26471752727377873,-0.5537918093429957,0.24656453758098187,normal
2024-01-01 00:00:02.060,-0.00018203088267638887,0.10940342763445349,9.331157431113011,0.8029959605531498,-0.7671452591533223,-0.2173622229054639,normal
2024-01-01 00:00:02.070,0.2908371124765655,-0.08521259257829034,9.727042466704836,-0.14829494392101494,1.0094686651964757,-0.12637222820731175,normal
2024-01-01 00:00:02.080,-0.2743805148085517,-0.13347316882248436,9.847892455545413,0.7490364226002558,0.7813417761844588,-0.5612171974522805,normal
2024-01-01 00:00:02.090,0.42510181430623667,-0.060523423662767806,9.558929987327856,0.40212932489996345,-0.8201689262166904,-0.01905166684975971,normal
2024-01-01 00:00:02.100,-0.08363478570456,0.004274856584911124,9.491464166036707,-0.4703854903303945,-0.07239887507133067,0.4335478064178897,normal
2024-01-01 00:00:02.110,0.08238063595883068,0.1604662414782222,9.434985477769086,-0.1584138179373559,0.4738166764155882,0.12455971593640366,normal
2024-01-01 00:00:02.120,-0.08042188833998072,-0.17564820472279993,9.073200120896244,-0.6844181197628363,0.050785114991583,-3.60274800934218e-05,normal
2024-01-01 00:00:02.130,0.14868685595566056,-0.48954301985032456,8.451007754205067,0.23204794490053057,0.18016029430560251,-0.529881421136585,normal
2024-01-01 00:00:02.140,0.3289713095667513,-0.4028529620372077,7.691764743604104,-0.26226303908659837,-0.0011718713292729103,0.01956966688449959,normal
2024-01-01 00:00:02.150,0.4512632136837255,0.6256910833013022,7.083364095415448,-1.0095112274290794,1.4599392054739282,-0.20976999131121604,normal
2024-01-01 00:00:02.160,-0.12194528737716603,0.10938204180457066,6.583753870330188,-0.7356685979566114,0.9260990176499797,-0.15821945176944072,normal
2024-01-01 00:00:02.170,0.06212167329807125,-0.041392510613006396,5.408168096313481,0.625967453187974,0.051149406157348275,0.05687101675760401,normal
2024-01-01 00:00:02.180,0.2528276557226196,-0.11369743416342346,4.484182468010968,0.23456603531440245,0.2450236384275482,-0.3047729104191582,normal
2024-01-01 00:00:02.190,0.05839476427871822,-0.030881254296621533,3.6636532501576906,0.22798015230866397,-0.26301655948747915,-0.07749824619093976,normal
2024-01-01 00:00:02.200,-0.4434973633770243,0.028464932574266175,2.564521108266926,-0.04605289182348759,0.15954784206989603,-0.865640386120289,normal
2024-01-01 00:00:02.210,0.5039071374013095,0.0374036705298578,1.4083469619186793,-0.33312310723293787,-0.33926115538579893,0.03097625047351263,normal
2024-01-01 00:00:02.220,-0.01784379898085709,0.032310513037849244,0.22557966824137848,0.2213003299833606,0.40786178564759606,-0.7165886071880581,normal
2024-01-01 00:00:02.230,0.33684556485755024,0.012003909426087162,0.9745618038539525,0.6944888599290777,0.46204707780597876,-0.3160036772322576,normal
2024-01-01 00:00:02.240,0.014806568043423523,-0.40141804225123184,1.9245092355658435,0.9228262963544166,-0.6621700284581336,-0.17225574088301143,normal
2024-01-01 00:00:02.250,0.7833512255589046,0.4865513463558355,2.998311318487885,0.2160464979044178,-0.08258151055923192,-0.3837654262888199,normal
2024-01-01 00:00:02.260,-0.1007137352733251,0.6804896573693461,4.211372654983644,-0.30972623762113327,-0.6113860320443942,-0.3120452104133346,normal
2024-01-01 00:00:02.270,0.2308883078219522,0.2819413400852887,4.967410156330967,0.48778125844698994,0.5966656363340419,0.5551273885775257,normal
2024-01-01 00:00:02.280,0.5043601694355911,0.3417669724714925,5.988075849419646,-0.4220310448238375,0.7120877565348913,-0.3029884346531661,normal
2024-01-01 00:00:02.290,0.1853593403135793,-0.37979375588449216,6.761218855356244,0.5632668612818488,0.41074671082765096,-0.18525199274984738,normal
2024-01-01 00:00:02.300,-0.45124545115192344,0.2280067407939731,7.708191662471044,-0.6490491467536348,0.3382998092528725,0.40662431263017296,normal
2024-01-01 00:00:02.310,0.05498925626142695,-0.26354017043154876,7.888934948444443,0.4443474132528799,0.24082656085688128,-0.7224252209706684,normal
2024-01-01 00:00:02.320,-0.23818421355238834,0.22714073800888585,8.647506108049372,0.6243768537740065,-1.8537639899371923,-0.14333403442144935,normal
2024-01-01 00:00:02.330,0.24159735124068704,-0.29189917954571115,8.982850502274156,0.8051916208272658,-0.591344771706785,-0.049462555439480714,normal
2024-01-01 00:00:02.340,-0.18450638763899838,0.03453574675691867,9.764578118776527,0.666760660646468,-0.5841025538431989,0.06738513142981432,normal
2024-01-01 00:00:02.350,-0.3288568900747287,0.23281513334686924,9.747342174315126,0.5942178126844876,-0.004472141828398195,0.1163775647144235,normal
2024-01-01 00:00:02.360,-0.018554635554818753,-0.006291429084627566,9.546416614299428,-0.03431332398000872,-0.7506217361392704,0.1671667256972314,normal
2024-01-01 00:00:02.370,0.6220188459662558,0.058221455729598505,9.929259104698371,0.6783698969691263,0.15695911446400748,-0.5671646786368791,normal
2024-01-01 00:00:02.380,0.6875714019439366,-0.1491405826787688,9.606911656328903,0.0785369207036914,0.4264722033064536,0.4236602726332146,normal
2024-01-01 00:00:02.390,-0.06024961880656174,0.42584577161711873,9.267048410088405,-0.4120027937212463,0.42387795830693853,-0.4507733018483907,normal
2024-01-01 00:00:02.400,0.26560734212357134,0.027055817472398377,8.655030737570964,-0.620582260459241,-0.5550402838303283,0.22646034027999473,normal
2024-01-01 00:00:02.410,0.2058680273771476,-0.41082751516109745,8.325201653464031,1.0309650825250098,0.40686867091140294,0.38706137289709547,normal
2024-01-01 00:00:02.420,-0.34125159151719814,0.02615413088410618,7.6459196973826264,-0.02523906689187403,-0.4054501196009515,-0.6183178852890305,normal
2024-01-01 00:00:02.430,0.13726363382273793,-0.08058983549745073,6.8626692865738494,-0.287787420438524,-0.9066326840359229,0.5209401543634208,normal
2024-01-01 00:00:02.440,-0.2308859999012257,-0.19178337265998927,6.182763443679781,0.38338859087693,0.4275574493113557,-0.2226865098719009,normal
2024-01-01 00:00:02.450,0.19323885835613755,-0.3283536409214455,5.045188205992632,0.09047557176707237,-0.1670718830053768,0.4349317864557172,normal
2024-01-01 00:00:02.460,0.32795302108705804,0.16121509791433633,4.210699332868719,-0.24695097339405991,-0.5794752607301341,0.25813860118802356,normal
2024-01-01 00:00:02.470,0.013334675408854671,-0.15313983693655886,3.162385062651819,-0.5233898788568958,-0.07509528503945771,-0.12413588915283712,normal
2024-01-01 00:00:02.480,0.23540224622269734,-0.3028487886475965,1.8393367173222157,0.6093228110744271,-0.19227914816266173,0.03429646469666647,normal
2024-01-01 00:00:02.490,0.38258042564579575,-0.18325239360069237,1.043763285344981,0.7280758199547362,-0.6479970802497005,0.19892828345477734,normal
2024-01-01 00:00:02.500,-0.3396651562651996,0.21724741484522203,-0.0628732429404026,-0.5165529741791209,0.2995789497800567,0.3024998788126352,normal
2024-01-01 00:00:02.510,-0.15671742520685006,-0.41714184309474106,1.1897096676924324,-0.24105245513676452,-0.4122674694960589,0.7820917824755403,normal
2024-01-01 00:00:02.520,-0.14703683808698956,-0.3492808868053316,2.0316316430573527,1.181029026950185,-1.068167742939646,0.13678189060257617,normal
2024-01-01 00:00:02.530,-0.07085370889673603,-0.5072453767654397,3.2250639569376767,0.0815953246331303,0.417853628116272,0.1513914544655208,normal
2024-01-01 00:00:02.540,0.518155742466961,0.30976768437731583,4.246827479509564,-0.18882833782430392,-0.06783588217287018,0.4846433520224344,normal
2024-01-01 00:00:02.550,0.11666242804164453,-0.03725126478566845,5.104690933494453,-0.34426269337171844,-0.9888243414137781,0.1874751837816887,normal
2024-01-01 00:00:02.560,0.3203303326900172,0.11262287711029458,6.026785694372452,0.21712156839485178,1.0042241672085699,-0.09640957123845434,normal
2024-01-01 00:00:02.570,0.11010147122843116,0.13294548670982467,6.9869758593868925,-0.5154728781992216,0.44767088172469344,0.6001803090904771,normal
2024-01-01 00:00:02.580,-0.0631200335856618,-0.4736318269949713,7.553983373138069,-1.0360827435772089,-0.10489877666673333,-0.11834688075947783,normal
2024-01-01 00:00:02.590,0.12365964230689613,-0.12665361928941765,8.445858956096716,-0.3193016396924884,0.3528374047495382,0.17319373897118986,normal
2024-01-01 00:00:02.600,0.1731945847055774,-0.17458391407089102,8.797175687976795,0.2142479549267967,0.6258161304347873,-0.33499467490830737,normal
2024-01-01 00:00:02.610,-0.32327898167802793,-0.09149927968228454,9.41592162894699,-0.07550379400049255,0.3250525945285314,0.1644411206697157,normal
2024-01-01 00:00:02.620,-0.20014316137903457,-0.09456231901898235,9.640305092350435,0.302030147608643,0.2280493489655999,-0.44592396160078396,normal
2024-01-01 00:00:02.630,0.0006126705632578382,-0.3299406330622641,9.553738691468844,0.263693843519401,0.6606450351572584,-0.5428677178852339,normal
2024-01-01 00:00:02.640,-0.3213981530890714,0.13638739703674102,9.468369929647213,0.044530230643882576,1.1724340795061454,-0.22702335801782345,normal
2024-01-01 00:00:02.650,-0.1312940980252474,-0.30160369887898547,9.789159490318083,0.6353620361026268,-0.12903176471891387,-0.5563248055202233,normal
2024-01-01 00:00:02.660,-0.1550850067651565,-0.015256611181573869,9.497041581300163,0.6059352325760538,-0.8198526563501585,0.6585898325702262,normal
2024-01-01 00:00:02.670,0.35418313984810035,-0.2174442440072181,9.073668692481005,-0.2575712548019277,0.6463000217722854,-0.0868893768998732,normal
2024-01-01 00:00:02.680,-0.07837776043918855,0.13739558388531833,8.614453610535493,-0.3321799775656557,-0.41063603490994954,0.23825810252195853,normal
2024-01-01 00:00:02.690,0.6114733517889989,-0.11998858333260495,7.9912541237014985,-0.2287306244867262,-0.696615681561116,-0.4469554850793978,normal
2024-01-01 00:00:02.700,-0.28708530042327146,0.11736761573953072,7.560044961494001,-0.8439068242625483,-0.7476708912997052,0.4380550797969434,normal
2024-01-01 00:00:02.710,-0.06019217492863162,-0.1916582631304626,6.696712246924148,-1.0972982453188849,0.6187234477394143,0.015940246709686762,normal
2024-01-01 00:00:02.720,-0.036016621609342554,0.3279808157765001,6.154119126955627,-1.6343389280649494,-0.6849381288978638,-0.1995271365515453,normal
2024-01-01 00:00:02.730,0.24109878850847283,-0.09507506096907671,5.114076289638312,-0.1021699670302814,-0.17740750881388836,0.012435983975428689,normal
2024-01-01 00:00:02.740,-0.5375892434851951,-0.2079452378844742,4.233544208802073,-0.18201378517695166,0.43844335311951677,-0.32228352706569513,normal
2024-01-01 00:00:02.750,0.28800363229584314,-0.21122218144149799,2.9880998017116007,0.4178459908326672,0.556009473666792,0.33320586752835996,normal
2024-01-01 00:00:02.760,0.23831138516926548,-0.3839323176154834,1.9476905627701069,-0.17634080721112835,0.11426942703578957,-0.4127491297880116,normal
2024-01-01 00:00:02.770,0.07012970917077067,0.30892882590082676,0.8313202884715535,-0.5157813743787794,0.21744654082920406,-0.0881811006363482,normal
2024-01-01 00:00:02.780,0.06869692677123751,-0.07833584664994785,0.23826972406499,-0.02113458972272762,-0.547631807289057,0.6431377799721946,normal
2024-01-01 00:00:02.790,-0.4512145352032996,-0.39699287684831586,1.5633617961382393,0.1857467162003146,-0.5755025101661565,0.367761799480678,normal
2024-01-01 00:00:02.800,0.07134283414869325,0.12575440285105485,2.2074454381174196,0.8329922673269059,0.9205197066052899,0.2046367107842937,normal
2024-01-01 00:00:02.810,-0.2069094849985311,0.15703475794047306,3.4615032738830886,0.2549701829678191,0.2305327788203307,-0.3907716715359537,normal
2024-01-01 00:00:02.820,0.2637291015650772,-0.13504119374676105,4.4986406669205925,0.22868135412366003,0.6313438654041429,0.08293391733819515,normal
2024-01-01 00:00:02.830,-0.1431648739991193,-0.3895900394107866,5.286862405659383,0.32433001974177167,-0.635986212230285,-0.736415914409844,normal
2024-01-01 00:00:02.840,-0.1354725719944755,-0.12163405582331607,6.362003858453654,0.38353147105247637,0.1466782869506509,-0.29053410036924016,normal
2024-01-01 00:00:02.850,-0.25418255484051,0.32212523520444153,6.870394950432432,0.9184825251721404,-0.4327664347638826,0.2887390890972507,normal
2024-01-01 00:00:02.860,-0.08902396146813142,0.2393320694726966,7.892096563180931,0.32536221225866757,0.18766534154303777,0.15279766126981945,normal
2024-01-01 00:00:02.870,0.16854350902255624,0.18444122202105442,8.552919269223949,0.18144635515760968,0.618370113458469,0.1378833821603863,normal
2024-01-01 00:00:02.880,0.36967350507462454,0.054827585065548176,8.981482768640639,0.480488884455519,-1.883800588875918,-0.03784054107077669,normal
2024-01-01 00:00:02.890,0.09597772894868807,-0.09457700371267105,9.878121421433402,-0.9456940859988687,-1.2901951752172578,0.3041112757242838,normal
2024-01-01 00:00:02.900,-0.07740080821244444,0.5293762632125044,9.574926973223512,0.9331506006218092,1.3447848685746762,0.2150505090468949,normal
2024-01-01 00:00:02.910,0.21783923482378523,0.005715830590054748,9.688400306604978,0.7916587602951378,-0.42177133015726176,0.2723899316359532,normal
2024-01-01 00:00:02.920,-0.2657672432523636,0.4954982733154495,9.886485215601915,0.07585249673771732,-0.28193010880970765,0.05994829411505263,normal
2024-01-01 00:00:02.930,0.4394225957214701,0.23286548348761976,9.510406458890897,1.2472599921606038,0.15921126055052667,0.39176773071288534,normal
2024-01-01 00:00:02.940,-0.04600071714670645,0.46919521211140686,9.293504578253398,0.00699170147742835,0.0014612647903428293,0.5165600235353259,normal
2024-01-01 00:00:02.950,-0.3239528231571808,0.23929141584842367,8.977444652517487,-0.170721837282582,-0.5404300774761249,0.09611533843425163,normal
2024-01-01 00:00:02.960,-0.16784889920743754,-0.11314443328221917,8.555844952009151,-0.13452298545439295,-0.28375880556595634,-0.14798586076449652,normal
2024-01-01 00:00:02.970,0.03811472044186552,0.3023073611130716,8.012757584150526,0.7145562151587369,0.12939449968322364,0.17836339684671246,normal
2024-01-01 00:00:02.980,-0.02931870081670278,-0.704279873409572,7.38672514360607,0.23267642363718452,-0.5391364669270068,-0.4145590724984961,normal
2024-01-01 00:00:02.990,-0.021906637267414368,-0.12853252971440093,6.615856299719629,-0.40590183317188905,-0.3030946861791531,0.6421347286548075,normal
2024-01-01 00:00:03.000,0.2763858271388204,-0.39054267572476664,5.630529330729128,0.6351123829376697,-0.28275924229806115,-0.2662140400210801,normal
2024-01-01 00:00:03.010,-0.17657249412221368,-0.4542414874232147,4.580871974168122,0.09586421388559441,0.2664880674724312,0.3645756635520139,normal
2024-01-01 00:00:03.020,0.029731568717433366,0.06765317851195775,4.1574817130256525,0.18139439104326527,-0.8499352958686456,-0.23441739051315263,normal
2024-01-01 00:00:03.030,-0.1488597652140091,0.13707561460975978,2.6024353236117017,0.33604652166843624,-0.15823570548381205,0.4934382946706675,normal
2024-01-01 00:00:03.040,-0.43156144474802555,-0.17854666208979444,1.8182037763609735,-0.3223433694636307,-0.37918926705533434,-0.30068422995078947,normal
2024-01-01 00:00:03.050,-0.29594482816944095,-0.2494561773994971,0.6242972435666855,-0.6672366338835111,0.7887408675820599,-0.4337572295263677,normal
2024-01-01 00:00:03.060,0.011095279856647166,0.2962806050148399,0.5743739084209338,-0.15348825129475102,-0.009142173672196115,-0.33269442666348104,normal
2024-01-01 00:00:03.070,-0.092758704489929,-0.3741797084715485,1.872101325026585,-0.42097894396395774,-0.1937970652160591,0.1176267223970511,normal
2024-01-01 00:00:03.080,-0.17485384013969046,0.04219037935945648,2.8252550720023293,0.02062772636725821,0.004058508254113846,0.13484470710935398,normal
2024-01-01 00:00:03.090,0.10213682080398838,0.24607553581194896,3.7453946697739853,-0.842995219813911,-1.295616967608562,0.10273223752049768,normal
2024-01-01 00:00:03.100,-0.31714572387041906,-0.022642357947681272,4.915307813613972,-0.8906113281290312,-0.6966823702243224,0.4871774624011206,normal
2024-01-01 00:00:03.110,-0.20174568866026543,0.2361076017736543,5.893378230095349,0.39739755995462017,-1.272670368859059,0.20324376285804477,normal
2024-01-01 00:00:03.120,-0.13832696433918412,-0.16012593935421449,6.384442743139854,0.8403484618183986,0.16978976185076738,0.26531519112821694,normal
2024-01-01 00:00:03.130,0.6004355069780889,-0.25352569041452283,7.321551266593264,-0.046874240014190764,-0.23682591715232454,-0.31591338284152876,normal
2024-01-01 00:00:03.140,-0.2788659438902996,-0.18240667125942867,8.349716388160974,-0.06785273121477829,1.2003925325378815,0.403364277009789,normal
2024-01-01 00:00:03.150,-0.4202961889819364,-0.5001124477220573,8.712503113911186,-0.3749701359612539,0.5023873468751336,0.3637017005737128,normal
2024-01-01 00:00:03.160,-0.2611020345263185,0.05577144890072831,9.215597823466076,-1.7354792957101064,-0.1400987344627773,0.667651446022727,normal
2024-01-01 00:00:03.170,0.10337261919621007,0.33164170083307937,9.559507770177975,-0.19936109193215729,-0.5046494301601775,0.19007835063542972,normal
2024-01-01 00:00:03.180,0.004528711924503177,0.0654152003675105,9.670657380685352,0.5276093726958436,0.5281099502928839,-0.021141162451481937,normal
2024-01-01 00:00:03.190,0.5556998929316989,-0.07261878884860119,10.022180472298958,-0.03815015832285814,-0.26599771512987935,-0.5913180151221,normal
2024-01-01 00:00:03.200,0.561411894037501,-0.4098977515487143,9.6350614048439,0.18924855230581983,-0.546130837815746,0.2087951026234153,normal
2024-01-01 00:00:03.210,0.21510954546475597,-0.00813169323917503,9.548862395642901,-0.3631618858129737,-0.1685132386070586,0.4251005958324978,normal
2024-01-01 00:00:03.220,-0.15482200959938552,0.10605427950022085,9.506389480619868,0.5225902895884186,-0.6055745079304015,-0.02180991634755322,normal
2024-01-01 00:00:03.230,0.2719552270634251,0.028166069671687326,8.955709803436694,0.031111500941975175,0.48398373827575236,0.04594234773851294,normal
2024-01-01 00:00:03.240,-0.11635523274719628,-0.04687263025609654,8.58450856460247,-0.33281597816313646,0.45347538415547084,-0.13487485102313188,normal
2024-01-01 00:00:03.250,0.24075986975501543,-0.36535223735616734,7.815423365222348,0.9003480110685,0.7005842814959317,-0.20266209636691038,normal
2024-01-01 00:00:03.260,-0.490474594741725,0.0028286188156588445,7.0987639573002435,0.883445741733263,0.61160371927623,-0.08454813393044801,normal
2024-01-01 00:00:03.270,-0.15574176757499372,-0.24650783746682137,6.422288677348848,1.0032623178349618,-0.229764451398368,0.456785399203824,normal
2024-01-01 00:00:03.280,0.18890055775467351,0.3567834709475927,5.35112259958853,2.2095954400847453,0.6543742778670105,0.12747554562598185,normal
2024-01-01 00:00:03.290,0.27978205924434385,-0.18677905068781026,4.6103134149562335,-0.38936130143732334,1.268553233239313,-0.037351585134564505,normal
2024-01-01 00:00:03.300,-0.13576879952835064,-0.0017680928861434717,3.795107441432063,0.2602554925286684,0.14745159558123133,-0.19814743993330663,normal
2024-01-01 00:00:03.310,-0.2860697638765681,-0.09390705063221798,2.5003169289158773,0.39513675135878,0.02168351065908973,0.5465969812049193,normal
2024-01-01 00:00:03.320,0.4545212400914357,-0.6208741800808536,1.4441102398999273,-0.29109199587196527,-1.1395398530665746,-0.7569585391191276,normal
2024-01-01 00:00:03.330,-0.29714183431383534,-0.2585700803193981,0.5057491385423021,-1.2477334916621892,-1.1897735485911698,-0.21665385070874899,normal
2024-01-01 00:00:03.340,-0.28167182290950776,-0.02457447291245227,0.61761739548252,-0.6258407523701377,-0.8745052347791799,-0.00025617464811084984,normal
2024-01-01 00:00:03.350,0.23992666206279714,-0.12897524770465482,2.0535599892834187,-0.036027283695556626,-1.031043660877829,-0.3214833263961736,normal
2024-01-01 00:00:03.360,-0.20937483321885678,-0.2528525165908986,2.6623523644046623,-0.28389111850139864,0.7946253695222495,0.3598937266178814,normal
2024-01-01 00:00:03.370,0.2032462571598646,0.12986490412954124,4.13821211164935,0.6820470945834926,0.854335726765047,-0.49501037406686754,normal
2024-01-01 00:00:03.380,0.28479317811759275,0.3389559246405702,4.90149804599666,0.12235455456822852,-0.2460236291822257,-0.27280644455285386,normal
2024-01-01 00:00:03.390,0.04696925744938184,-0.13758790305267274,5.981038240349079,0.10977843892255154,-0.11418810727020952,-0.1903754984530436,normal
2024-01-01 00:00:03.400,-0.07242576420071221,-0.5569129534110208,6.893007705587458,-0.28185703325872186,0.5907952390656889,-0.4172938994616085,normal
2024-01-01 00:00:03.410,-0.18713114609589748,-0.07992517994380936,7.6336650851630985,0.28594199275748095,-1.2269587273766447,-0.025388086051290223,normal
2024-01-01 00:00:03.420,-0.3439214797252719,-0.47737549534338236,8.145656006835837,0.15815963412138062,0.12039872125794158,-0.42579107869683935,normal
2024-01-01 00:00:03.430,0.1764411443196918,-0.39956896515167384,8.618852137276837,0.7108601332119048,0.00035144549967081805,0.38389886753175856,normal
2024-01-01 00:00:03.440,0.23401367830648168,-0.3168111020919459,9.214055107033957,-0.16038876160095636,0.5075991973276532,-0.558054314801149,normal
2024-01-01 00:00:03.450,-0.17828171421419103,0.08137563251141106,9.472884080704013,-1.1499913386878622,-0.6019737754863057,-0.6888428035490114,normal
2024-01-01 00:00:03.460,-0.34744843638877354,0.4262891984825673,9.552302595466497,0.779167929929089,0.13085577178727728,-0.02460139212295599,normal
2024-01-01 00:00:03.470,-0.1607666549343188,-0.3188405648693405,9.987008044784128,-1.1957642276169234,0.29111251114503095,0.3853761015568148,normal
2024-01-01 00:00:03.480,-0.02724193206298724,-0.2664242803362398,9.973595257883272,-0.0820531819989523,-0.7423466767704878,-0.4236807766633142,normal
2024-01-01 00:00:03.490,-0.11337064702899922,0.14674895331805737,9.71587935342935,-0.12584815820067757,-0.23404054087765447,-0.5638478779250898,normal
2024-01-01 00:00:03.500,-0.021795962513841836,0.3370612426023975,9.381027530304472,-0.6152282615667632,-0.22928621124357948,-0.6537285769713373,normal
2024-01-01 00:00:03.510,-0.2131648093545988,0.28357822496082613,9.11607604681355,-0.3673515723160263,0.5830970296128417,0.41116567356804445,normal
2024-01-01 00:00:03.520,-0.0934754732956168,-0.09770709117227373,8.259266509734234,0.28415667341114587,0.2237433882838068,0.2063786419539259,normal
2024-01-01 00:00:03.530,0.4761680257981036,0.08219963026487953,7.742978681749289,-0.09066694810997813,0.06702875603159013,0.1710639446257522,normal
2024-01-01 00:00:03.540,-0.10339051462619035,0.2270444010042413,6.934562199233153,-0.0286392169813615,0.41410380575252725,0.22713670962087826,normal
2024-01-01 00:00:03.550,0.11338928012761004,-0.2559752536175681,5.890148067129965,0.08478389160808653,-0.8967805019969092,0.058196920878374185,normal
2024-01-01 00:00:03.560,0.6213934201367668,0.3871508518122365,5.3462849004204225,-0.7143824848614908,-0.9870115598755235,-0.46943036116239806,normal
2024-01-01 00:00:03.570,0.11957424424304532,0.5174826517409415,4.3677318323507235,0.4588049987470548,-0.04258259079667181,0.2712437447149195,normal
2024-01-01 00:00:03.580,-0.34170519159992024,0.7431964204350704,3.210155808487187,-0.3974719123429244,0.9429519692481396,0.34514737710462257,normal
2024-01-01 00:00:03.590,-0.14452874582291664,-0.02396157211057432,2.4694111547485216,0.33782316461379713,-0.4292530311820206,0.16952417567757397,normal
2024-01-01 00:00:03.600,-0.1837271505343264,-0.09279645511850189,0.9187929075409407,-0.06704276428946969,0.18193446389066503,-0.2283949718389647,normal
2024-01-01 00:00:03.610,0.3038328649494067,0.2647800632147271,0.061963890508659025,0.07076100098031186,-0.8069704180424242,-0.04723029418774592,normal
2024-01-01 00:00:03.620,0.06191526945449445,0.1305728982948644,0.9393344508756603,0.5610541225266252,0.36826247589460825,-0.3665335104533263,normal
2024-01-01 00:00:03.630,-0.12053851863749836,0.6440241937056742,2.1384170503902027,0.8755320305273102,0.9136431012197408,-0.3347213629976088,normal
2024-01-01 00:00:03.640,-0.18971834480523456,-0.10240085272211413,3.271110681652423,0.700604652138386,-0.34927322665474686,-0.18874869910074857,normal
2024-01-01 00:00:03.650,-0.008663986230733308,0.1833847074353215,4.137470508965499,-1.2882326305966783,-0.6721974076543985,0.42166446764012233,normal
2024-01-01 00:00:03.660,0.5229753360696883,0.16725931195038457,5.186114436798186,-1.1800870788154225,-0.7961298043938606,-0.48136130840142877,normal
2024-01-01 00:00:03.670,0.24969784478192147,-0.4460765397525185,6.1064866035445045,0.05349462368541746,0.987964256433095,-0.2701442916476285,normal
2024-01-01 00:00:03.680,-0.27495211130421365,0.16213525544558746,6.705188279301038,-0.21771481871168394,-0.29824901564284295,0.27432731169629987,normal
2024-01-01 00:00:03.690,-0.35111500388874134,0.23688397273099462,7.863832631298834,0.4244317021941191,0.29681688011416396,0.5960668251027859,normal
2024-01-01 00:00:03.700,0.20745929514374856,-0.8217582026267,8.251608514004138,-0.14076170857066173,-0.35058376243670514,0.047996086999311426,normal
2024-01-01 00:00:03.710,-0.21522621500031652,0.14090111205533928,8.825850381323336,-0.06956876524297675,0.6178584859647889,0.2760696098017372,normal
2024-01-01 00:00:03.720,-0.11684726632575917,-0.23091736321987455,9.487880965667435,-1.0853095006286968,-0.673512071454304,-0.2647907458128539,normal
2024-01-01 00:00:03.730,-0.302529214066457,0.3871742571012455,9.518492102286706,-0.22900794019585777,-0.313411670197385,0.1677698280678728,normal
2024-01-01 00:00:03.740,0.6398056910844715,-0.36304807151732327,9.954385307799365,0.29239074457265957,0.08367833890233667,0.7836474825469378,normal
2024-01-01 00:00:03.750,0.10782903120289414,-0.2158672434163543,9.528816640724882,0.031853780493719536,-0.4519032534220762,0.44235662914866863,normal
2024-01-01 00:00:03.760,0.019408759757433214,0.3184752711033741,9.65279019700248,-0.35063653788685945,-0.04850716288831177,-0.15874452723746613,normal
2024-01-01 00:00:03.770,0.16466853455998387,0.05650765834224144,9.640324868926884,0.23374188592444195,-1.2034132906506032,-0.00857240859567032,normal
2024-01-01 00:00:03.780,-0.1120034283906089,0.22320844586415658,9.331737559380935,0.1809761574428069,0.5250480914881082,0.08621437469194143,normal
2024-01-01 00:00:03.790,0.0810201864963257,-0.190113932471428,8.763831595351563,-1.1627592062859378,-0.9587760672758642,0.1292001944325887,normal
2024-01-01 00:00:03.800,0.028089131716585596,-0.43683450667735574,8.272643614095637,-0.48764471884213884,0.0017457339210882722,0.39016894497091514,normal
2024-01-01 00:00:03.810,-0.09774754002901809,-0.049047214845934405,7.648739557055573,-0.12240630409558016,0.18255317450164504,-0.2206173305382743,normal
2024-01-01 00:00:03.820,0.49429577532382174,0.37878541471509175,6.7010896742841215,-0.445541322379952,0.4354010134031116,-0.032767101639942404,normal
2024-01-01 00:00:03.830,-0.05565654872226614,0.18175779472122214,5.612267962274475,-0.2699030756013275,0.23884352274653306,-0.21326937880787222,normal
2024-01-01 00:00:03.840,0.07926638795183573,0.35739954134119795,5.041790070174748,0.10732320129214605,-0.23594401597154271,0.01469588255561371,normal
2024-01-01 00:00:03.850,0.25902667201123386,0.3524510432801404,4.293713466780378,0.2822588523553241,-1.1495324520389363,-0.21131714224077283,normal
2024-01-01 00:00:03.860,0.33062057972804754,-0.1909488722004321,3.4342585948792927,1.0908461824370401,0.8306185167942653,0.17118614204910282,normal
2024-01-01 00:00:03.870,0.1442238041991186,-0.3095311750100987,2.1746456806291774,-0.6436696986573515,0.0895330455196968,-0.1018846035488957,normal
2024-01-01 00:00:03.880,0.13458931507747496,0.11172484031090506,0.9019953151151261,0.8072359847913608,0.02115197711260966,0.6170801166246727,normal
2024-01-01 00:00:03.890,0.0901961589000532,0.5416262200235378,0.06684881845036839,-0.6756815413821868,-0.1652030522637012,-0.094323651304441,normal
2024-01-01 00:00:03.900,0.1921230596234587,0.2906591104319102,1.156726567234953,0.2761318705052215,0.03265723045510535,-0.27255738042183963,normal
2024-01-01 00:00:03.910,0.5570290393892784,0.5196926300195989,2.2325930008907338,-0.7982116246501326,-0.4297062958234185,-0.4540780612489471,normal
2024-01-01 00:00:03.920,-0.13258606992342623,0.2475916081703076,3.331091778830937,-0.3500891099581366,0.2602144682316405,0.3631924292393342,normal
2024-01-01 00:00:03.930,-0.2536174239291958,-0.3356023281779229,4.440761561224107,-0.2589187257715439,-0.5537482049550896,-0.32332914944273133,normal
2024-01-01 00:00:03.940,0.2463631835096204,0.2314901161178029,5.448546277327311,-0.20271404504790624,-0.13530113185724396,0.1473001148958391,normal
2024-01-01 00:00:03.950,-0.2186176104555648,0.24218576026898755,6.377440996961832,0.39782485951098373,0.5618227181092296,0.11503643142147289,normal
2024-01-01 00:00:03.960,0.4990146064964264,-0.06462399588878578,7.161093528577576,0.76164822641257,0.6378057546299218,0.05359684556120251,normal
2024-01-01 00:00:03.970,-0.09801823062370554,-0.24740088195685553,7.998082904791504,-0.0006926112962359491,-0.07934910284947705,-0.23430807049943042,normal
2024-01-01 00:00:03.980,0.13746680084469087,0.027078270029910142,8.50254790541776,-0.07469362744822237,1.5031059127823287,-0.11359129326895197,normal
2024-01-01 00:00:03.990,0.2547540562108595,-0.18965760213114075,8.75392127304021,0.01103919559357454,-0.36988901185957557,0.7169220564857663,normal
2024-01-01 00:00:04.000,0.09456709270562218,0.13142473802118787,9.582162529176516,-0.1981752747425898,0.1704142713553221,-0.0017558476625903615,normal
2024-01-01 00:00:04.010,-0.4216947176159841,-0.29550472549238604,9.667893645360643,-0.1307928267807346,-0.042653083256742094,-0.590126592305599,normal
2024-01-01 00:00:04.020,0.5761593114225001,-0.28295494217574185,9.87512700130611,0.811718407063008,-0.0564109898819087,0.22922361383147366,normal
2024-01-01 00:00:04.030,-0.09515840300440377,-0.3478342675252149,9.80783289489913,0.22816652054527722,0.24287925689752343,0.166753458414947,normal
2024-01-01 00:00:04.040,-0.04974810066655888,-0.3195438626809149,9.616655708030894,-0.6516821330052988,-0.835689191009334,0.08941546505958087,normal
2024-01-01 00:00:04.050,-0.012337001335855602,-0.37994350856983733,9.264160192199576,-0.9889042705013789,-0.36723570159811864,-0.36267839531090157,normal
2024-01-01 00:00:04.060,0.03632266497053288,-0.18823976907957693,9.420608180735318,0.5450991673190109,0.3665877185071442,0.14247580991168757,normal
2024-01-01 00:00:04.070,0.11329361043163504,-0.28585743511175454,8.638645640010969,-0.8222640365592476,-0.24572137928761323,-0.405380977698372,normal
2024-01-01 00:00:04.080,-0.28208531341141535,0.046073723131194795,8.374957302440206,-0.2537119240613102,-0.6868713928686485,0.09802872572854743,normal
2024-01-01 00:00:04.090,-0.46655834544997804,-0.08214378006144314,7.393057056456072,0.0061804905082938795,-0.28004354448543667,-0.3691906047512898,normal
2024-01-01 00:00:04.100,-0.2834602457355261,0.24806323263084845,6.555544368408352,-0.17213397996669483,-0.6158819982301702,0.23794340315143378,normal
2024-01-01 00:00:04.110,-0.1298304663147531,0.10607218781069375,5.88469008439301,0.6847656248294893,-0.12978083467471957,-0.721997894981579,normal
2024-01-01 00:00:04.120,-0.07671723301668217,-0.04756372449338395,4.97853719144154,-0.20804593263269458,0.08915786129852274,0.1791057511009831,normal
2024-01-01 00:00:04.130,-0.32969174017384073,-0.15053247730367952,4.05384472574674,-0.5576265504735425,-0.2675197418454981,-0.3864634468248367,normal
2024-01-01 00:00:04.140,0.09374000032305203,-0.20880933913321295,2.712889434875223,0.16904824049461611,0.025402857649594227,-0.49561837437603834,normal
2024-01-01 00:00:04.150,-0.6614592170846092,0.076778762727013,1.8541892582724884,0.5973716558163253,0.011303905463607081,0.04193574282689188,normal
2024-01-01 00:00:04.160,-0.32713291856449134,0.0025200514952877,0.8071475798767317,0.16782155458951417,0.05312403241992909,-0.4489091366553591,normal
2024-01-01 00:00:04.170,-0.2758093080852613,0.07919027069752789,0.3028810145957054,-0.3696986910435517,0.6286467548647803,0.7725541575601007,normal
2024-01-01 00:00:04.180,0.06399056040604413,-0.5287388810019393,1.3873953438546658,0.9242317840237273,0.0927560577726377,-0.09647886569873947,normal
2024-01-01 00:00:04.190,0.0946793357323865,0.4613423824131047,2.54337734743391,0.42186188147084325,-1.1028649709549294,-0.3223776913307435,normal
2024-01-01 00:00:04.200,-0.5853693623197852,0.03647976652697782,3.8473795508283963,0.19805323731428234,-0.27637041107522264,0.16946755964722218,normal
2024-01-01 00:00:04.210,-0.1989659432533606,-0.12561714398376486,4.657594734567015,-0.0073327116412167,-1.119325109608924,-0.4963709797660786,normal
2024-01-01 00:00:04.220,0.5594025095239489,-0.1169885414859063,5.6052887046643125,-0.7635836203244115,0.3664824033788157,-0.34516594988801075,normal
2024-01-01 00:00:04.230,-0.3151728620163253,-0.2676909340764947,6.088002090367746,0.4914996825945134,0.7333723137783776,0.31940740102060156,normal
2024-01-01 00:00:04.240,-0.6412366332423725,0.1531362997583041,6.948840443186961,-0.23735139302867847,-0.43100073845904585,0.23425651263943115,normal
2024-01-01 00:00:04.250,-0.10187803134843869,-0.30353739639573335,7.7476199013327705,-0.017635709215008975,-0.388476618165769,0.392018457654185,normal
2024-01-01 00:00:04.260,0.5537401475979845,-0.26680304978302105,8.487112031565069,0.30036465217869834,-0.7354620910681533,0.1991596627690947,normal
2024-01-01 00:00:04.270,-0.11896206624364615,0.11472016044634124,9.440169651127206,0.21167632399048397,0.016197072644558577,-0.2536755310802443,normal
2024-01-01 00:00:04.280,-0.24479184699880854,-0.018000652215625256,9.147405537416297,-0.7642216145434364,0.3607686429009291,0.22752883388127065,normal
2024-01-01 00:00:04.290,-0.09309828440295607,-0.0830496709660408,9.690870263616397,-0.6673521155144808,-0.7304910841731475,-0.23097362604359659,normal
2024-01-01 00:00:04.300,0.05471497576881857,-0.21595755694946872,9.809661879379416,0.8308932485670779,-0.44006419471351077,0.5535498981073791,normal
2024-01-01 00:00:04.310,0.046055510426994795,0.4159320747066075,9.62509747987585,-0.02416049933121966,0.98293921536595,0.023531298247081507,normal
2024-01-01 00:00:04.320,-0.029934530593273098,-0.4277808303177074,9.914940227687357,-0.866418623383334,0.08930816102390775,0.7992192724106942,normal
2024-01-01 00:00:04.330,0.4684929754061554,-0.4317104799771298,9.60256935761803,0.1599802164399403,-0.7304902112024193,0.2938754781174994,normal
2024-01-01 00:00:04.340,-0.2766260717569065,0.3715531717968825,9.12483292375135,-0.8754029605393718,0.08056157349764992,-0.06822051028476678,normal
2024-01-01 00:00:04.350,0.08836088361376486,0.14103214435299274,8.53221498329891,0.5852891168029831,0.36548918959625365,0.6045320245423043,normal
2024-01-01 00:00:04.360,-0.030837042109198663,-0.1563884198176603,7.909062832105317,0.37168650735337166,0.4864494886739378,0.32288151197783005,normal
2024-01-01 00:00:04.370,-0.02218801592947847,-0.4499205457569669,7.321082368784468,-0.41036486735366795,0.29196561941809623,0.28422525566652007,normal
2024-01-01 00:00:04.380,0.006706977207258564,-0.17847584908399364,6.615501567581945,0.25004363696294646,-1.515400430972889,0.08960174209428826,normal
2024-01-01 00:00:04.390,0.21478093705125467,-0.009266137123929081,5.802237327897563,-0.06675421971713626,-0.19785519790384387,-0.35561986719718675,normal
2024-01-01 00:00:04.400,-0.21240542741861337,0.055499098172631954,4.756432458258058,-0.09400668927674445,0.06859662456704388,0.2371179262211358,normal
2024-01-01 00:00:04.410,-0.06755017713729462,-0.4349269157775811,3.8155691138473267,-1.418952019754686,0.005232019639214688,0.15292327755759394,normal
2024-01-01 00:00:04.420,0.0008894632548489296,-0.5243936405193611,2.739121381644892,0.7145245113962269,-0.895807353265759,-0.06629684380709669,normal
2024-01-01 00:00:04.430,-0.33248350129685067,-0.1545999723897704,1.371523971720454,-0.35557602589972304,-0.5061278896345662,-0.5720551350658725,normal
2024-01-01 00:00:04.440,-0.46314364238031297,0.1729177409582394,0.6128968474156584,0.06188569999788525,-0.515373607775833,-0.4079596897688342,normal
2024-01-01 00:00:04.450,0.11988577066886529,-0.35001725838030545,0.6263227454887976,0.0557601090624721,-0.5612495359067182,0.1751507068690962,normal
2024-01-01 00:00:04.460,-0.13513267171709334,-0.087727078419003,1.8396509188321872,0.618663980258283,0.14141121721092312,-0.22975461929391847,normal
2024-01-01 00:00:04.470,0.1965813348557164,-0.37328871592103624,2.8244284699185918,-1.295829113968504,-0.2655179167196786,-0.1022837865847401,normal
2024-01-01 00:00:04.480,0.22258308838963217,-0.10418573804041344,3.879272984633116,0.7824289958711057,0.5666686290883303,0.07716545233164254,normal
2024-01-01 00:00:04.490,0.07888745836027534,-0.30643041498465406,4.699380669741518,-0.08451267837334663,-0.5057685020872357,-0.4871183951983331,normal
2024-01-01 00:00:04.500,0.04923860450238541,0.3130780067372279,5.837377353905699,-0.5755182274149399,0.46808774480850884,-0.06152336960365893,normal
2024-01-01 00:00:04.510,0.5555674354237965,-0.2806537536687586,6.596137226975013,0.09597979744582288,-0.8404697495682599,-0.12883160860109544,normal
2024-01-01 00:00:04.520,0.48725237517071057,0.04282909233750211,7.548148671677211,-0.13288040058572104,0.9792215504412946,0.02693891937203452,normal
2024-01-01 00:00:04.530,0.23920584364122058,0.001912563960157087,8.368947023185548,-0.6096276008873673,-0.46187943688186195,0.013951342686602784,normal
2024-01-01 00:00:04.540,-0.2967311626990084,0.09189542962829907,8.435159709078203,-0.8151805820665555,-0.20649533594540137,0.27179898022686666,normal
2024-01-01 00:00:04.550,0.3671172736451959,0.09208436216132604,9.340672140064258,-0.48853682734747056,1.2889224471869565,0.38809320393987373,normal
2024-01-01 00:00:04.560,0.03717452700089705,-0.42587456674129665,9.522110860396669,0.8801641245303954,-0.828298704463624,0.640574651429952,normal
2024-01-01 00:00:04.570,0.5541962340188383,-0.2868396413842234,9.685174405145181,0.3951834402579604,-0.32873257808236167,0.17342546360314842,normal
2024-01-01 00:00:04.580,-0.309265347952059,0.6010788816217763,9.703383610070185,-0.3838810134929801,0.7214056877969515,0.3224040010140456,normal
2024-01-01 00:00:04.590,-0.2795391633329619,-0.25213667329060907,9.780581706728208,0.04930846912114822,0.6283162698130339,-0.28650417081536855,normal
2024-01-01 00:00:04.600,0.0738972097193956,0.21001451805887314,9.80986749409757,1.0670574388073002,0.42844986315202793,0.01754519162812703,normal
2024-01-01 00:00:04.610,-0.12771356462398673,-0.577856243249436,9.202550754723587,0.6889465122404294,-0.5758051581515649,0.5680315509943017,normal
2024-01-01 00:00:04.620,-0.10368556003879857,0.08917344352656513,9.224410296348573,0.08731844717050992,-0.30425517885725456,-0.40219818512427447,normal
2024-01-01 00:00:04.630,0.07076339402894423,0.3339843425765026,8.20354251756353,-0.3167527932136948,0.11048503057229311,-0.50056396102257,normal
2024-01-01 00:00:04.640,-0.2180600899925555,-0.5916354887654942,7.675472468237864,0.07371450359706933,-0.14924207927814928,0.1411337158914736,normal
2024-01-01 00:00:04.650,-0.08481384679398966,-0.16465413683913513,6.967286413530071,-0.7357898602550076,-0.8364155375371183,0.21709240119991127,normal
2024-01-01 00:00:04.660,-0.15698121692324407,0.26757460154547075,6.09195961969671,-0.1937782323037134,-0.06939217848290179,-0.07968281092559361,normal
2024-01-01 00:00:04.670,-0.7778366631280437,0.23597272404470113,5.442495257469697,-0.04528265813234224,0.5078128082215342,0.04805113017536274,normal
2024-01-01 00:00:04.680,-0.37636291111952713,-0.10382632742181089,4.705190110718396,-1.1904091817877782,0.39765100927407476,0.4307192124244064,normal
2024-01-01 00:00:04.690,-0.1956762789597577,0.11291586662831363,3.590603788762873,-0.7809879816380852,-0.7775026194241975,-0.018731098441456723,normal
2024-01-01 00:00:04.700,-0.23159452771442646,0.14081784852782267,3.0241800980994267,-0.16366758402820067,0.08373330104295636,0.25865989203063827,normal
2024-01-01 00:00:04.710,0.04551974511844159,-0.051725599845028836,1.2942983497697382,1.187466109229631,-0.9684931382815061,0.36125628259201475,normal
2024-01-01 00:00:04.720,0.28437004488908607,-0.36796614791640614,0.1571637251969863,0.005100048205976223,0.12369751588792777,0.28389950218000887,normal
2024-01-01 00:00:04.730,-0.19085162914809914,-0.396361093842381,0.6387158882337429,0.9335842641978264,0.3477610124597191,0.2821234492554938,normal
2024-01-01 00:00:04.740,0.2179817255986119,-0.2990799796765135,1.875645245733396,0.23249991638714887,0.07747503053294755,0.4121360712876436,normal
2024-01-01 00:00:04.750,0.186753065846626,-0.1811603944965056,3.1209942209717894,0.4333180511818877,0.1450465554545355,0.558577884772795,normal
2024-01-01 00:00:04.760,-0.2635381263563846,-0.1531152701560455,4.109432400586205,0.8188535769389574,-0.08977611266210243,-0.4211669266855964,normal
2024-01-01 00:00:04.770,0.1776286252105342,-0.2506812861265532,4.987393439740814,-0.882442693675576,0.7277792528915408,-0.2628388983517908,normal
2024-01-01 00:00:04.780,-0.24022201101115265,0.3694614584378289,6.115616204222679,0.2719885423940559,1.499312500990793,0.22769110029532133,normal
2024-01-01 00:00:04.790,0.036987843618313324,0.431367022377563,6.837051904055727,-0.548968195414722,-0.08892409277424904,-0.2495446630537624,normal
2024-01-01 00:00:04.800,0.5749449986794153,-0.15559239538016792,7.448437387040965,-0.8078106963615079,0.3218136412299594,0.07984251789648256,normal
2024-01-01 00:00:04.810,0.0533800228854605,-0.11051667529949978,8.095904491066136,-0.7245820621920174,-0.0073810020199705,0.2161374455024588,normal
2024-01-01 00:00:04.820,-0.0775276145488777,0.08937463983662478,8.823815217941943,0.1774615954163299,0.48182408029693113,-0.1356600769141806,normal
2024-01-01 00:00:04.830,-0.3218639397200546,-0.16950189866209686,9.42868880542331,0.31463611529616536,0.22597272308949398,-0.15267586632873276,normal
2024-01-01 00:00:04.840,-0.08133338120497524,0.26611933680449906,9.615324501337525,-0.40493209447829137,0.36417183573263,0.05950579155141486,normal
2024-01-01 00:00:04.850,-0.3919452724446299,-0.2954030164096542,9.682367710347698,-0.40811163276095574,-0.16916064088617105,0.6331601289107948,normal
2024-01-01 00:00:04.860,0.4266338725817356,-0.3100358271373745,9.771254006102522,-0.09135602100315529,0.34230697905961827,-0.09688849845234615,normal
2024-01-01 00:00:04.870,-0.14282903294914445,-0.3787774432254016,9.899028773498284,-0.18786557321320277,0.2575874228894923,-0.14490242912369433,normal
2024-01-01 00:00:04.880,0.3876642814878186,-0.46661199078425974,9.710997224369288,-1.2959508409404188,0.21800558650165316,-0.21253145527860817,normal
2024-01-01 00:00:04.890,0.5261210539112853,-0.2470271869593689,9.329198121140472,-0.14094017048591817,-0.6907220476043193,-0.3573517426006765,normal
2024-01-01 00:00:04.900,-0.43003988843700963,-0.3186031844542766,8.858977170764637,0.11719807453248762,-0.3365380405468979,0.37126359813434295,normal
2024-01-01 00:00:04.910,-0.25134553992852804,-0.2222119510332108,8.58242905853064,-0.5049684197258303,0.23598821631181666,0.6527924157146732,normal
2024-01-01 00:00:04.920,-0.43471102126946926,-0.09271965021242809,7.5547923651402416,0.5499084432330906,0.6206403730401587,-0.03688445146474055,normal
2024-01-01 00:00:04.930,-0.20967572004926124,-0.015798440932810926,7.001752540359675,0.6910620401508463,1.2875388367226233,0.46065262650879824,normal
2024-01-01 00:00:04.940,-0.2678910388507044,-0.027726869229355106,6.120691852733182,-0.25285277677926027,-0.5244219747604353,0.229087700915969,normal
2024-01-01 00:00:04.950,-0.09293062468973726,-0.008008783347567593,5.278738487417496,0.4130286507695675,-0.7753997868570002,-0.036752909662923175,normal
2024-01-01 00:00:04.960,0.25498355212419954,0.42489980066382965,4.2383283753674705,0.034935766296506694,0.6038710211945914,0.3559159056647097,normal
2024-01-01 00:00:04.970,0.2725233118932397,0.03490426117354742,3.3017592223399896,-0.008960554096466072,0.154885523199837,0.31694657629061085,normal
2024-01-01 00:00:04.980,0.5832612202125037,0.10062029211427102,2.3699365966621206,-0.8599575819335499,-0.8545007314848757,-0.7729449537641448,normal
2024-01-01 00:00:04.990,0.32577910128457466,0.20589573325645233,1.1294017864380865,0.1783088910067605,0.5458601103819114,-0.192376035161977,normal
2024-01-01 00:00:05.000,-0.37288474122059884,-0.1956023755744668,0.24475188202413087,-0.42493575604656836,0.45794241378451866,-0.39660201742672957,normal
2024-01-01 00:00:05.010,0.3386397130648504,0.2648143831777778,1.2239580762011761,-0.6066672027584525,-0.14360906435752857,-0.010528955418401582,normal
2024-01-01 00:00:05.020,0.2873427549906955,0.260496090442489,2.1050619451267876,0.18657266296803887,0.989060466015741,0.6173529801550401,normal
2024-01-01 00:00:05.030,-0.07227386253089087,0.053841077150585684,3.2379471666661557,-0.5864520852339427,0.03279676825604853,0.5376546552381927,normal
2024-01-01 00:00:05.040,-0.3745776644096607,0.05417839042406133,4.231432572610281,-0.06712730626746934,-0.8236884404063652,0.21866640831787926,normal
2024-01-01 00:00:05.050,0.16951571794888867,-0.4375880581060418,5.03227850626869,0.18119389515038495,-1.1020903571866267,0.46169095220312634,normal
2024-01-01 00:00:05.060,0.13057868356992403,-0.17971023340071987,5.934696393964388,-0.055761533527399744,-0.5377476858179038,0.29598658888798757,normal
2024-01-01 00:00:05.070,-0.13146209317071644,0.3546224390992314,7.235589807190213,-0.4591197640057715,0.6799219771128185,0.0008469319474099852,normal
2024-01-01 00:00:05.080,0.19934833729632329,-0.3240747468317892,7.7697119125478,0.41528144876889644,-0.6896922481616931,0.15362759025671127,normal
2024-01-01 00:00:05.090,-0.2951555728473518,-0.361515895436073,8.627786153301406,-0.3336016565790088,0.13512713327559933,0.10602805926497125,normal
2024-01-01 00:00:05.100,-0.3494290964612567,0.7830189383565146,8.71641374890371,0.34265919553821433,-0.3288804819426477,-0.23857631881041183,normal
2024-01-01 00:00:05.110,-0.017674094084450497,-0.3407425612553063,9.286202231195642,0.0361096872481376,-0.22833768588898096,-0.027396887923768407,normal
2024-01-01 00:00:05.120,-0.315099276981574,-0.5051449953173173,9.654558477737996,0.0389923479489049,0.30380093272118447,-0.5356307055182746,normal
2024-01-01 00:00:05.130,0.39535309804332336,0.244948029923726,9.623570910618517,-0.19076607100024914,0.02408460360589683,-0.30936664911985273,normal
2024-01-01 00:00:05.140,0.02949210446016844,0.3058221864194252,9.375090773884137,-0.35614205701977203,0.005061311603057199,0.448495520698285,normal
2024-01-01 00:00:05.150,0.2827967935579816,0.4175412745988575,9.627789260710752,-1.0659355269787705,-0.4532207220555691,-0.24684130267859242,normal
2024-01-01 00:00:05.160,0.17651718368922772,-0.3069716815568542,9.564460231890507,0.09447969529408409,-0.4587416443178742,-0.2173613525405101,normal
2024-01-01 00:00:05.170,0.28572743549050933,-0.19789157041036867,9.139867307334194,-0.09843246956457191,0.1865371558564441,0.32031004995604223,normal
2024-01-01 00:00:05.180,0.26855356659947444,0.09885853537489206,8.67540616547844,0.3444308747857854,-0.25626415235495004,-0.07147961523408618,normal
2024-01-01 00:00:05.190,0.20077761321737206,-0.26376465488487816,8.14576974935006,-0.1607355823250607,0.4562669882701231,-0.4674468201664851,normal
2024-01-01 00:00:05.200,0.04476650336584046,-0.3625612109431587,7.461462240639491,0.34458709921019004,-0.18698087585305945,-0.28214206200456443,normal
2024-01-01 00:00:05.210,1.0729588615881778,0.07264481444470419,6.700626309835082,-0.24374008075471815,-0.5325899237498316,1.4748091169698285,normal
2024-01-01 00:00:05.220,0.01281564556036503,0.26114748868292287,5.953129870673918,-0.3732953219384988,0.3959290891756229,-0.5925023146346133,normal
2024-01-01 00:00:05.230,0.27778070235423213,0.07989610824101973,5.175399808124493,-1.336948744544803,-0.3772957403967574,0.24308486194751,normal
2024-01-01 00:00:05.240,-0.126417657423889,-0.1188442783428801,4.109301129785418,0.8158162361275031,-1.1190552478276954,0.3209435762197439,normal
2024-01-01 00:00:05.250,0.3953472529289206,-0.06715511681952602,2.87945753719204,0.4700888787731277,-0.01761057241379698,0.0034321119781470133,normal
2024-01-01 00:00:05.260,0.6164129456682437,0.1800686728112298,2.006415300858177,0.5858420123667167,0.06825954944723871,-0.2516960354573069,normal
2024-01-01 00:00:05.270,-0.1302068532191031,0.28654801587060647,0.6032560472139552,-0.2460520495112814,0.9413222546578652,0.18965615908508102,normal
2024-01-01 00:00:05.280,0.17060809031179625,0.40942803752757845,0.16417507928292807,0.31788278743851844,0.9750814919776424,-0.25473489292361556,normal
2024-01-01 00:00:05.290,0.156949103875223,-0.14916123497211461,1.4953841803065022,0.5611875067387674,-0.1379691722326574,-0.5255166665292402,normal
2024-01-01 00:00:05.300,0.02197313642284597,-0.09451277548979206,2.6895524022921884,-0.3323137742510345,0.48459164004235794,0.026413325955259415,normal
2024-01-01 00:00:05.310,0.42059241504113826,-0.33192173010877024,3.421727120660808,-0.746016309343216,-0.22496983452559072,-0.2901537042219489,normal
2024-01-01 00:00:05.320,0.20881245463109968,0.4557772794536821,4.634323346215237,-0.01305406598233861,0.2466966115433234,0.11811843038091506,normal
2024-01-01 00:00:05.330,0.23729708586675238,0.3127300089613659,5.375045860337228,-0.11459621648917978,0.423784005928643,0.08734190063148714,normal
2024-01-01 00:00:05.340,-0.10355301799003343,0.8411521517096537,6.396249855239196,0.025580354996704323,-0.25328701104386797,-0.027821835314018176,normal
2024-01-01 00:00:05.350,-0.07164154851616542,-0.6347954764666767,6.82999524849392,0.06988490175041345,0.3606621986105802,0.3836440454093868,normal
2024-01-01 00:00:05.360,-0.07827544399765576,0.19034795414426695,7.871479306463135,0.10300889647828876,0.22104996791755374,0.19537608879478585,normal
2024-01-01 00:00:05.370,0.17692989936582706,0.019887967004777594,8.497231125328932,1.0016326793511674,0.275426659798125,-0.22678904994839028,normal
2024-01-01 00:00:05.380,-0.014556634770386986,0.1999967376035884,8.990197409008012,-0.9024373777267204,-0.07151170622282015,-0.7256918279483644,normal
2024-01-01 00:00:05.390,0.32417986855561737,-0.08276566680231416,9.2959146383981,-0.4737293144741775,0.6872613274105127,-0.4344924414771481,normal
2024-01-01 00:00:05.400,-0.16081108049513346,-0.10186226164568003,9.581768417707952,-0.3758357215110623,1.0815320737045349,-0.06274881192214331,normal
2024-01-01 00:00:05.410,-0.3018978679027311,-0.7079080839253,9.801194809627132,0.33494844898450815,-0.11303042271584512,0.1640843647953865,normal
2024-01-01 00:00:05.420,-0.5843340256685045,0.21066158895046086,9.773957298000214,-0.473546609032658,0.15499066804870412,-0.11309923820955545,normal
2024-01-01 00:00:05.430,0.4096249151218062,0.30772845112090175,9.808967832776611,-0.35444254418446697,-0.33351713366006486,-0.11039760152062965,normal
2024-01-01 00:00:05.440,0.7467018762784249,0.8302946872217526,9.375621405412264,-0.11175218136173293,-0.38584582089885433,-0.8677685698118781,normal
2024-01-01 00:00:05.450,0.28140984273537206,0.2696404909000246,9.222539509165005,0.411383914380936,-0.26896981668831105,0.1268914820546329,normal
2024-01-01 00:00:05.460,0.0578945964705443,0.47659250338976494,8.645115874887267,0.03207824978777364,0.13834174743583486,0.359861298055311,normal
2024-01-01 00:00:05.470,-0.40968418341552365,-0.1465594496556812,8.085874428561945,-0.9028420563375599,0.3717659236679008,0.04050350071286403,normal
2024-01-01 00:00:05.480,-0.12284511042867727,-0.3790558949539344,7.474576825793107,0.67093268327273,0.4286206521758848,0.30386735049906693,normal
2024-01-01 00:00:05.490,-0.2152528344716269,0.5914563186331654,6.655380570561916,-0.3853155899523508,-0.575085216507973,-0.651921963976805,normal
2024-01-01 00:00:05.500,0.30761113054471684,-0.3291446453971917,5.675439499769816,0.23715389354573044,-0.27954212630985503,0.060250277948035114,normal
2024-01-01 00:00:05.510,0.23485982401004826,0.0765068287446521,4.998557846424022,0.2774052836839715,0.19570554612029492,-0.12661490125411817,normal
2024-01-01 00:00:05.520,0.41866579797058723,0.37996898711873184,3.911538110698598,0.9914969333709902,0.9745636637423822,-0.4078985532974968,normal
2024-01-01 00:00:05.530,-0.134032311291657,0.1055083030705987,2.598878484386334,0.38382140126365605,-0.09252137234648967,-0.19214950599252834,normal
2024-01-01 00:00:05.540,-0.03344409100599126,-0.3361093884725054,1.5993870041498364,-0.6509713133686568,-0.26658335649718456,0.31426853195843485,normal
2024-01-01 00:00:05.550,-0.508485173447363,-0.457093573475633,0.6974278699728155,0.8770286874045182,-0.5373075756015488,-0.6201275028529247,normal
2024-01-01 00:00:05.560,-0.10854936612171016,0.7098295950187248,0.508668282783389,0.24124966186016067,0.9659252540811775,0.3946668007321377,normal
2024-01-01 00:00:05.570,0.397000360306898,-0.33997710816530835,1.7572981542037827,0.11636656207686304,-0.4462777801795639,0.021031740993600632,normal
2024-01-01 00:00:05.580,0.006394379141658978,-0.4371990077051632,2.663601273741631,0.8820138822022495,0.16430271155781623,-0.08928468188047928,normal
2024-01-01 00:00:05.590,-0.3003468965312176,0.05723678157273793,3.8102080332854733,0.7662291245836159,0.07008082109496018,0.022552007615803223,normal
2024-01-01 00:00:05.600,0.19514315980408548,-0.22146689094526126,4.533547503027448,0.5487070615408539,0.8020755135572546,-0.0006558030391221296,normal
2024-01-01 00:00:05.610,-0.047836405401787775,0.35359876453364547,5.492735896496626,-0.4705986843853703,-0.18281448178538728,-0.14307816692773498,normal
2024-01-01 00:00:05.620,0.18557960149098013,0.002089105203490799,6.424865341108071,0.216312248702231,0.8114289221790332,-0.3429283805876913,normal
2024-01-01 00:00:05.630,0.3030961765037667,-0.00514598753659778,7.299704497440923,0.39798537906642745,-0.21543325155949503,-0.20768344529914454,normal
2024-01-01 00:00:05.640,-0.5177759539108698,0.1446122557562064,8.137887449905456,0.3004033669285759,-1.202370737222273,0.3073966058983396,normal
2024-01-01 00:00:05.650,0.09755645683510801,-0.33407921379839833,8.681404459715614,0.8212877313471727,0.2589081092697116,0.22504698283065008,normal
2024-01-01 00:00:05.660,0.28479555818379754,-0.27014119244090495,9.174087807782952,0.09458564976127132,-0.14923019776916271,-0.8281183261338562,normal
2024-01-01 00:00:05.670,0.18171018944430967,-0.5643427465179146,9.51708280962243,-0.9180466669751994,-0.3930558659313715,0.3049702176846066,normal
2024-01-01 00:00:05.680,-0.49554868806795704,-0.06059796122509039,9.661872441264636,0.6310624432558137,0.23727149447190723,-0.23806484118445453,normal
2024-01-01 00:00:05.690,-0.049757151899187155,0.3130989765233309,9.626275572246179,0.5693314665442996,-0.11215318157646446,-0.17779083362410797,normal
2024-01-01 00:00:05.700,0.5803680262342303,-0.6866923587625732,9.840517025774053,0.0235614531597392,-0.8721361229551331,-0.48304089988601007,normal
2024-01-01 00:00:05.710,0.48412622519013027,0.25440225310449527,9.563929497853428,-0.4137756309841868,0.039411566185909186,-0.06398567783695844,normal
2024-01-01 00:00:05.720,0.1707558333241026,-0.45671371461340865,9.50002889308008,0.5387044277611214,-0.1957647857665925,-0.28259137381577193,normal
2024-01-01 00:00:05.730,0.26645116482318987,-0.06673611240095106,8.835248192318565,-0.17430629878174259,-0.1837151487485732,0.10170029135083217,normal
2024-01-01 00:00:05.740,-0.19836043633527967,-0.01620184590893058,8.593351023857382,0.5500620245377633,-0.5669149391174709,0.31205968915034676,normal
2024-01-01 00:00:05.750,0.1740224776959108,0.42325745721240965,7.783843061842079,0.6516233941912154,-0.25179970573427485,0.5049706745262342,normal
2024-01-01 00:00:05.760,0.06635382768513969,-0.4825318073116621,7.189539861281479,0.2690568842703426,1.7033781545279307,0.290924055131861,normal
2024-01-01 00:00:05.770,0.3042112930385891,0.12168248538383607,6.352274246408548,-0.42067266555069505,0.5387630102678715,0.48105596670121636,normal
2024-01-01 00:00:05.780,-0.594647387096909,-0.08349656199156923,5.4703054731440455,-0.07492134406003044,0.042902083715167724,0.5509705665180764,normal
2024-01-01 00:00:05.790,0.05360002395670005,-0.21967170053585552,4.736268026411942,-0.07917184057217731,0.2322535556473069,-0.43460219175071724,normal
2024-01-01 00:00:05.800,0.14815954316946492,-0.1099137523077366,3.4149536138313272,0.6891882223500067,-0.1390078159159293,0.48379099186297136,normal
2024-01-01 00:00:05.810,-0.06323606355603319,0.23878675458384252,2.699455424362115,1.2441481306267892,0.17287089772401773,-0.03968380622955855,normal
2024-01-01 00:00:05.820,0.0035372362144465677,-0.11830814485728704,1.4650745683301394,-0.8134089024016836,-1.0797626646725245,0.0012646841550530547,normal
2024-01-01 00:00:05.830,0.027637214978761288,-0.040395017479798304,0.6528550308282295,-0.38720722040165084,0.4470207146058424,0.28422210385501956,normal
2024-01-01 00:00:05.840,-0.05948497344790603,0.19916565072525452,0.5059203131771253,-1.4853566856723692,0.6600066094714725,-0.6337823385431038,normal
2024-01-01 00:00:05.850,-0.2660048220792015,-0.1376102560940813,2.0060861412766435,0.8001703187571642,0.7957433083073505,0.062195396544994126,normal
2024-01-01 00:00:05.860,0.10921378624811413,0.28792653938694546,2.9074824298169,0.4812584193616868,-0.8680597970066042,-0.497420046350606,normal
2024-01-01 00:00:05.870,0.16235780608531328,0.38713353645326914,4.081504319995013,-0.28027204955860574,0.7253004785886333,0.10704763567995995,normal
2024-01-01 00:00:05.880,0.3890376792049483,-0.4821402659736141,4.961022056885029,0.4625317978881725,0.796211422195593,0.1662624784363557,normal
2024-01-01 00:00:05.890,0.2112531790564503,0.11216599006825179,5.841953602554668,0.6105899593325759,-0.2741895741577137,-0.3159490013172686,normal
2024-01-01 00:00:05.900,0.6169163458076813,0.4929208711411715,6.935478474549571,-0.38518197529408627,-0.49407392016487,0.2933598490105421,normal
2024-01-01 00:00:05.910,0.1315891815480074,0.2752382757837206,7.392994129160893,-0.580294997753503,0.04116382700426991,-0.11261384646322468,normal
2024-01-01 00:00:05.920,0.10135471295175105,-0.05675243073433364,8.066446283933823,-0.18284631632377787,-0.3782103330640227,0.16783381279036405,normal
2024-01-01 00:00:05.930,0.0729306334139755,-0.37012882078346715,8.399978740983185,-0.5533408540292807,-0.0737733746651207,-0.02201638081213332,normal
2024-01-01 00:00:05.940,0.4369724326330742,0.05169559269221424,9.227674561565694,0.06275208408956662,0.0009034992744914004,0.3312325837934452,normal
2024-01-01 00:00:05.950,-0.17260211880152906,-0.3652515779172027,9.409437198415254,0.7855720528611769,1.1768922339674381,0.05787054272806367,normal
2024-01-01 00:00:05.960,-0.3894405365926856,-0.24403820043144858,9.377780782194407,0.4877179888501537,-0.6322808550842335,0.07963599775066464,normal
2024-01-01 00:00:05.970,-0.3844635351502272,0.013266104887522258,10.223244516793603,-0.43857091754844824,0.08385164523291673,-0.05485851228416495,normal
2024-01-01 00:00:05.980,0.2039496676099712,0.5584775257445843,9.972866258004883,-0.9283653800810905,0.3228931740713691,0.3872593672512511,normal
2024-01-01 00:00:05.990,-0.09089142551549369,-0.07642497628986782,9.478183508748302,0.6094432431595969,0.18243865227157285,-0.15685931893775343,normal
2024-01-01 00:00:06.000,-0.3626909100336424,0.5616650134161177,9.351019230167172,-1.5353047536934854,0.13723186652939393,-0.27911769936222247,normal
2024-01-01 00:00:06.010,-0.19180871307275787,0.35565415677232187,8.780218667751658,-1.1854683094811227,0.003549699191467982,-0.5777868992908263,normal
2024-01-01 00:00:06.020,0.44129856151668223,0.3717379932260852,8.461007271603338,0.38228438060908954,-0.25521703329566975,0.2613627502760104,normal
2024-01-01 00:00:06.030,-0.2686362689883662,-0.7357254815859762,7.416198379995639,-0.35412159190828907,0.452687996328894,0.3939071335763996,normal
2024-01-01 00:00:06.040,0.030150946434500135,0.31059441472601584,6.987419311646961,-0.7680098864154065,-0.18386153782366949,-0.0504207598793891,normal
2024-01-01 00:00:06.050,0.25551337065352886,0.40846802348131483,6.225095481326835,0.31494088907973905,1.147627920152087,0.06737741599959525,normal
2024-01-01 00:00:06.060,-0.19026245453231766,0.0887053945770492,5.575695297263864,-0.4787198854289354,-0.7029617732828133,0.034038224380689215,normal
2024-01-01 00:00:06.070,0.11388491856072405,0.5813419492407176,4.213659675331804,1.0075497261245951,0.19450860290778518,-0.34181141604576226,normal
2024-01-01 00:00:06.080,0.06856591191919474,-0.5392927935632476,3.0834300040915084,-0.23135547578899948,-0.31566244363567214,0.04190443381639864,normal
2024-01-01 00:00:06.090,0.19694235643533894,-0.1346549547712165,2.4570309282739116,0.3065379967492105,-0.20173110105871422,0.2616312253608005,normal
2024-01-01 00:00:06.100,0.011109636643766263,-0.4897865815661387,1.2122081328037118,0.16127642216729612,0.5639207195133006,0.14573715543197857,normal
2024-01-01 00:00:06.110,0.10140460528559772,0.023713468047801806,-0.02172463923042825,0.08630564165746996,0.7780881690736631,-0.5936064302609713,normal
2024-01-01 00:00:06.120,-0.12347199241070932,-0.06589599062601971,0.7866285727157756,-0.457815511239466,0.5859429699512949,-0.13417963563249574,normal
2024-01-01 00:00:06.130,-0.20352943873415613,-0.18165569021169703,2.091616726649885,1.275670136225064,-0.20973882521898163,0.1849532023492888,normal
2024-01-01 00:00:06.140,0.16477241280361257,-0.24286040174114834,3.072052487366294,0.6625213843580706,-0.6325314149499227,0.5694285386992745,normal
2024-01-01 00:00:06.150,0.2240555989871338,0.09756982754424044,4.464550092239537,-0.2846289182375896,0.21782513453588806,-0.285919654292694,normal
2024-01-01 00:00:06.160,-0.15032033452141644,0.4066191023087004,4.902132964280858,0.35936746591470975,-0.09675238651667427,0.08319958973955377,normal
2024-01-01 00:00:06.170,-0.01572984166807901,-0.037500761347166504,5.790830807984715,1.0717022312430529,-0.7916960365576065,0.023866319011948637,normal
2024-01-01 00:00:06.180,0.6120506996802073,0.33046431913979746,6.997504840947224,-0.016013350694846346,-0.19391420004602647,0.35605771428090116,normal
2024-01-01 00:00:06.190,0.20315130239639417,-0.11594967870940964,7.533445981360703,0.5616678335861427,-0.34945512972021325,-0.5211979873174039,normal
2024-01-01 00:00:06.200,0.14646748544335994,-1.1393142543579604,8.168535878038059,-0.8397566875582567,-0.27527729269116613,-0.20721797148625723,normal
2024-01-01 00:00:06.210,-0.18394481428934067,-0.15932115763034954,8.950292637475282,-0.08434688504385666,-0.1848067537932846,0.1393068321753455,normal
2024-01-01 00:00:06.220,0.08663277725307562,0.2399546109920518,9.327303631236896,-0.5079707352632622,0.6797551552813392,-0.11564936088016602,normal
2024-01-01 00:00:06.230,0.1678308013231228,-0.03438948374776977,9.473726436175388,0.09049526631577405,-0.17486286038850873,-0.3778647669412915,normal
2024-01-01 00:00:06.240,-0.2713804111558774,-0.005775707951089333,9.869571452010794,-0.015328993750148238,0.23992149966746656,-0.39310131372986584,normal
2024-01-01 00:00:06.250,-0.2526532874982445,-0.22358288743386506,9.71783294905641,0.5624862241471696,0.4402774583631337,0.4598756776555205,normal
2024-01-01 00:00:06.260,-0.05835336069324861,0.23345165491658265,9.798269860000513,0.38862795486326995,-0.37904580596094284,-0.2593183002690359,normal
2024-01-01 00:00:06.270,0.20186449653946323,0.17688255325904206,9.419333691351659,-0.9922169990796402,-1.5380492230832314,-0.247158613612902,normal
2024-01-01 00:00:06.280,0.0031341238112852555,-0.0809473998295678,9.038286349727521,-1.2042487023587436,0.7961141240117737,-0.01003482894371741,normal
2024-01-01 00:00:06.290,-0.332078411414745,0.01739492273677022,8.897567636186096,0.5925761528474199,-0.15509663502711618,-0.4008190728728565,normal
2024-01-01 00:00:06.300,0.027034253822934035,-0.047911663111565146,8.11313681834352,-0.31487915289122365,0.1522623369007237,0.3352449419630992,normal
2024-01-01 00:00:06.310,-0.22123241992796833,0.3226656774867181,7.442396936584521,-0.21428500271035544,-0.7017476282424571,0.3642234751345816,normal
2024-01-01 00:00:06.320,0.6389742109189238,-0.031510822886925416,7.204325844224569,-0.2695150714296073,-0.016598015103423003,0.1543735657648192,normal
2024-01-01 00:00:06.330,0.3068486330765657,0.28603285478539386,6.1222587413507945,-1.5236924438540969,-0.43319385237558217,0.6986417634339952,normal
2024-01-01 00:00:06.340,0.5075296188538221,0.1289135493940325,5.113963672917275,0.1393939242937657,0.6506716394025709,0.06265198946519415,normal
2024-01-01 00:00:06.350,0.3454702796192945,-0.19606778725715593,4.001913400043514,0.8944254671452866,-1.1309707546260928,0.9032731063080287,normal
2024-01-01 00:00:06.360,-0.7497783507566363,-0.02748315911052364,3.0399613180215472,-0.644810046738136,-0.214602630067365,-0.28216341616342666,normal
2024-01-01 00:00:06.370,0.1469168775468956,0.4700061507941836,2.0956491429278286,-0.7424163315521177,0.3884595779471124,-0.029394060472232916,normal
2024-01-01 00:00:06.380,0.3064400890661578,-0.2820502667235829,0.5826468949547143,0.6846398818868913,-0.626414597043342,0.2534072442929844,normal
2024-01-01 00:00:06.390,0.024950701609454475,0.17815234912981254,0.17707952358190945,0.4419708137572075,0.6498499549183464,0.2084417702354734,normal
2024-01-01 00:00:06.400,-0.20175588553776772,0.19980381288631452,1.0574136497304207,0.01071549682668966,-0.27045291729498977,0.5191100967495528,normal
2024-01-01 00:00:06.410,-0.04076539287992799,0.4590767794877105,2.1976531895689493,-0.5815389444281793,-0.349727650972506,0.29362570423738926,normal
2024-01-01 00:00:06.420,-0.07416771566686318,-0.027523744261673568,3.3069262283071654,-0.33798311727374436,0.5608350840500446,-0.2527363859669634,normal
2024-01-01 00:00:06.430,-0.06814565964492508,-0.014201938799771531,4.693187285550954,0.24267004851461282,-0.04803546543663342,-0.6922717147846084,normal
2024-01-01 00:00:06.440,0.23485503922207207,-0.06629394377260599,5.311394855865645,-0.2605723484347156,0.0954576031880948,0.8184542460502688,normal
2024-01-01 00:00:06.450,-0.4294135720214265,0.49058331936794836,6.16968980053182,-0.7582465661074467,0.5235903418301516,-0.5045801984993288,normal
2024-01-01 00:00:06.460,-0.17972410477361409,-0.30100890171466355,7.035696361598215,0.4950194399214832,0.3832887328956312,-0.2440145711526709,normal
2024-01-01 00:00:06.470,0.26830552054496676,-0.14866547942215977,7.877184681407039,-1.0315941421131354,-0.18780881651727066,-0.2543885225266144,normal
2024-01-01 00:00:06.480,0.5682804526370422,0.4056701098805718,8.636767665683095,-0.44858453082728583,-0.3734563559910361,-0.22317636058710888,normal
2024-01-01 00:00:06.490,0.2648950016895341,0.2244926110226199,9.132282194738623,0.32984643802111235,-0.315687237218037,-0.7622116344065393,normal
2024-01-01 00:00:06.500,0.11221069619308624,0.03756659062863572,9.50961486428637,-1.330260563069961,-0.80451714298498,0.46760622438014854,normal
2024-01-01 00:00:06.510,-0.33208139826552097,-0.3412884196085844,9.744296238958462,1.4008805347697295,1.197358042458985,-0.07041143251259624,normal
2024-01-01 00:00:06.520,0.1246754076929249,0.10629924145094748,9.652497785332129,-0.6859005421688187,-0.1225393017825765,-0.0712499861272958,normal
2024-01-01 00:00:06.530,0.19132035905939043,-0.3988820246820088,9.629664815628962,0.15147919345493752,0.40776694872749086,0.12460905180145393,normal
2024-01-01 00:00:06.540,-0.19297040898136494,0.395438362224054,9.705305414005235,-0.009936077765215101,-0.3407620286767348,0.7298827679888982,normal
2024-01-01 00:00:06.550,-0.41781465864725875,-0.581907479721098,9.410558450888745,-0.825136393731704,0.04529789630726605,0.6771689548480155,normal
2024-01-01 00:00:06.560,-0.01241393670952749,-0.03374412946506129,9.380309584335466,-0.011862929426802393,-0.27231026368568717,0.6464153257373761,normal
2024-01-01 00:00:06.570,-0.04642166431304228,-0.3057433632366789,8.694051761312181,0.3601570445015323,0.24214811445004,0.0037027671036353824,normal
2024-01-01 00:00:06.580,0.2527975868071477,-0.22534693511078624,8.14906195958502,-0.12061723699892679,-0.2776613957609764,0.03007174705973095,normal
2024-01-01 00:00:06.590,0.024492043060640276,-0.24747202910536234,7.4401537689048975,-0.4192432395503364,-0.19361155920339315,0.022893270310786185,normal
2024-01-01 00:00:06.600,-0.20801711275411902,-0.2535805781937576,6.765983722767113,0.9441553333885732,-0.5317283421079855,-0.13820067832094182,normal
2024-01-01 00:00:06.610,-0.11793341889162834,-0.03513712707925778,5.847476701976642,-0.014566230519254032,0.11506282207598702,-0.1722127973583378,normal
2024-01-01 00:00:06.620,0.04186541130423315,-0.21458077170998904,4.975283746128966,-0.20923418890300627,-0.22316955550982312,-0.392266189294381,normal
2024-01-01 00:00:06.630,0.10393686209810793,-0.051361727999879724,3.887658649233582,0.5788286268507034,0.7286126560168412,0.29930866352377006,normal
2024-01-01 00:00:06.640,-0.317539849294014,-0.005511218448376649,2.890794047661765,-0.15898133277621412,-0.25814874947797406,0.6940052309798256,normal
2024-01-01 00:00:06.650,0.22255675567688524,-0.014344511190704002,1.7884901225442014,0.4501671001647343,1.1094777163878078,-0.32048933020628795,normal
2024-01-01 00:00:06.660,0.36903947662153697,0.24870942694631087,0.7406349147927874,0.05617356719122433,-0.7570839854518553,0.15865407809482496,normal
2024-01-01 00:00:06.670,-0.25019706916929924,0.2590441855331562,0.37173130185344705,0.305081342455624,-0.458662288938441,-0.020386788613959355,normal
2024-01-01 00:00:06.680,0.5357011618992393,-0.056631984248439515,1.2454002369237118,-0.0393299369251198,0.2649224522335469,0.6174593561516628,normal
2024-01-01 00:00:06.690,-0.29413604712662594,-0.589113971613693,2.211889884045015,-0.1825720331076282,0.34329076208746345,-0.33561372747661666,normal
2024-01-01 00:00:06.700,-0.13025881569574244,0.1126236019070851,3.454052507548679,-0.322515793905887,-0.872393620229177,-0.6760423434250967,normal
2024-01-01 00:00:06.710,-0.6836447941049347,0.17802792304987716,4.710459786137185,1.33494494416058,-0.3896706771417427,0.31422024176794583,normal
2024-01-01 00:00:06.720,0.28873839314768934,0.2614308427623144,5.444110767763489,-0.2207550282207353,-0.021594969594483475,-0.144030683831379,normal
2024-01-01 00:00:06.730,0.47731683300328404,-0.23855761831863687,6.606558764419853,0.3262127765339653,0.45602627878107527,-0.3038437598612735,normal
2024-01-01 00:00:06.740,0.13279441848495424,-0.2596084781927988,7.209749304605797,0.7527765563099504,-0.23034284561499951,-0.320402223886611,normal
2024-01-01 00:00:06.750,0.04754030987867262,-0.42313274069083484,7.743610765386484,0.12471973290991147,0.9751388421768877,-0.39701413225838234,normal
2024-01-01 00:00:06.760,-0.17416024060058596,-0.31165773872767266,8.381376767089515,0.11354776274915446,-0.8884459186850904,-0.1973700934745123,normal
2024-01-01 00:00:06.770,0.14344571944956078,-0.18458280278271252,9.11591866712264,0.6584984539411862,0.7503854022305319,-0.10816140470646389,normal
2024-01-01 00:00:06.780,0.331169656470303,-0.0702852450934846,9.35851705957374,0.652350087322185,0.19549720630196135,0.03675853268562382,normal
2024-01-01 00:00:06.790,-0.10452654831227366,-0.13622019214579187,9.584310173866113,-0.7172697915855846,-1.3957985861340376,-0.3650119271778091,normal
2024-01-01 00:00:06.800,0.03864741115272969,0.6778909128286954,9.829378547189336,0.668405138306378,0.6938498400616399,-0.06357639463352718,normal
2024-01-01 00:00:06.810,-0.1814728453387529,-0.7845921429777757,9.84420399244047,0.5945434290590428,0.9463908373297308,-0.25852900605985046,normal
2024-01-01 00:00:06.820,-0.022966688600176033,0.044752955381004995,9.60580618617348,0.8537317274966805,-0.7580762478601175,0.15134930405998606,normal
2024-01-01 00:00:06.830,-0.19931615574451828,-0.1919368479197318,9.702752280992318,1.0422926013776357,0.2534256648704092,0.3358885304166037,normal
2024-01-01 00:00:06.840,0.6264868439644212,-0.3762760062541995,9.100527410628855,0.1787309074772206,0.34162432117738295,0.0785703995213253,normal
2024-01-01 00:00:06.850,0.2451091600969949,-0.2269107439876059,8.630429593020013,-0.3793881194896301,0.6442392939535336,0.28236779168968784,normal
2024-01-01 00:00:06.860,-0.671713446983707,0.21354572694945353,7.726373539148759,0.599496951376516,0.6016741790980976,0.6833905671724346,normal
2024-01-01 00:00:06.870,-0.4762619372269852,-0.28552166487054287,7.269008597756148,-0.4134600570459912,0.48501410159349406,0.003106704270413401,normal
2024-01-01 00:00:06.880,-0.07621850651983814,0.25904049392445166,6.79964303845062,0.8149484606804971,-0.1670499517313103,-0.12044861110871781,normal
2024-01-01 00:00:06.890,-0.31969834260408564,-0.33047421642195196,5.5318347818385245,0.04576760548055274,0.013224922667215113,-0.3330506305705366,normal
2024-01-01 00:00:06.900,0.2378334366560375,0.2899151173607258,4.6738632215750995,0.2447067058537652,-1.2179836090213565,-0.4137823138393678,normal
2024-01-01 00:00:06.910,0.06252794580880044,0.1376899873522244,3.8713932156800976,0.14028565259352643,0.31361941698332746,-0.031453178155598775,normal
2024-01-01 00:00:06.920,0.4005316969841493,-0.3565149316479216,2.473375523882042,0.2798424174350313,0.10108489290741408,-0.4950964214094248,normal
2024-01-01 00:00:06.930,0.3884100573730935,-0.12575549921367968,1.5767661163426425,1.2879133388165778,-0.5508186516935493,0.07752228647186792,normal
2024-01-01 00:00:06.940,0.05763568814626083,0.027976190792324815,0.4050681414169255,-0.0226842718753876,-0.5409379886742751,0.158730948692922,normal
2024-01-01 00:00:06.950,0.24291323096610723,-0.391501115415661,0.36723424144905237,-0.6667039842725271,0.38912684258530433,0.12406245232911896,normal
2024-01-01 00:00:06.960,0.4026907073206026,-0.031103882924477973,1.7317823960998127,0.5050510644619873,-0.35622436676308195,0.1970742639765683,normal
2024-01-01 00:00:06.970,-0.07214053867442584,-0.22644279349855034,2.6859660421190856,-0.34416287005654866,-0.0070917393872469104,0.31477738571819835,normal
2024-01-01 00:00:06.980,-0.2838564268831197,0.24151333268959232,3.5935333429304905,-0.3953206214849966,-0.7452189600277952,0.6832036331644201,normal
2024-01-01 00:00:06.990,0.16984474698975305,0.0941569243559716,4.909258470631786,0.20895732328565395,1.6306509502912503,-0.0002787756535078387,normal
2024-01-01 00:00:07.000,0.052390494241554175,-0.05982244445483405,5.672959583588352,0.34283348681629366,-0.10534097549274545,0.515737658698505,normal
2024-01-01 00:00:07.010,-0.3188596170202487,-0.13487128649464364,6.810349683243207,0.21789932793759262,-0.13396858977539391,-0.1942331981052894,normal
2024-01-01 00:00:07.020,0.2690073030386811,-0.18844341435112522,7.254268104908715,-1.1745455755817693,-0.20711225434737912,-0.09657391744018572,normal
2024-01-01 00:00:07.030,0.3188177920827481,-0.2421496023780482,8.135659770600514,-0.11959104286676442,-0.7036226636305535,-0.37869113145795913,normal
2024-01-01 00:00:07.040,0.7738219379015109,0.18410824622158442,8.219538493019803,0.48280524652327605,-0.2662637867184919,0.24480550975315318,normal
2024-01-01 00:00:07.050,0.14177305467264478,0.010259128906657262,8.886612526014908,-0.5069805653297219,0.6653077692542758,0.09635815348481389,normal
2024-01-01 00:00:07.060,-0.26244504531877727,0.3035330964685525,9.71037655447641,-0.5199042922153374,-0.1695159169778548,-0.16465075463184783,normal
2024-01-01 00:00:07.070,-0.24285042769923568,-0.31524832671104336,9.568148250751479,-0.2686682328009796,-0.7013844927761661,-0.04138424880268772,normal
2024-01-01 00:00:07.080,0.26855403536335465,0.06648740950989851,9.943805923754566,-0.5669375130327167,-0.15589589443443885,0.4789763178890674,normal
2024-01-01 00:00:07.090,-0.5091312989389328,0.22867359816623825,9.672832924488963,0.4445777135099319,-0.3776857010896915,0.14362914296814344,normal
2024-01-01 00:00:07.100,-0.281876694742373,-0.055596648579506386,9.44843555827072,-0.5819612481221146,0.3107388135101954,-0.1534652581030064,normal
2024-01-01 00:00:07.110,-0.1966739321914813,0.4207161752715495,9.34986215742537,0.09623842988118027,-0.7031052315906177,0.16266892191782242,normal
2024-01-01 00:00:07.120,0.29023920970073575,-0.13336059807477021,8.683191876915442,0.565419143801966,-0.4343071265434791,-0.24979618651871405,normal
2024-01-01 00:00:07.130,-0.2935924634379953,0.08188366234759997,8.783297490769636,-0.10040954888719487,-0.19664400535071846,-0.3118126369231366,normal
2024-01-01 00:00:07.140,-0.18471329771318137,0.18223791597390002,8.061775937420643,0.040654991020449345,-0.10106570091952877,0.5836866258964957,normal
2024-01-01 00:00:07.150,0.012211667876773096,-0.37794537082030916,7.311487711596729,0.783840607047654,0.5922526409569859,-0.03431714362541063,normal
2024-01-01 00:00:07.160,-0.05575114236508128,-0.4031594304715394,6.269194104987595,0.7937148614955426,0.8810689447874401,0.5249328488321314,normal
2024-01-01 00:00:07.170,0.23975106906105678,0.27844143697702534,5.684234098714561,-0.2025563137322784,0.13282182625641897,-0.559837517774043,normal
2024-01-01 00:00:07.180,0.4524457350001634,-0.4721668839857695,4.539516484567011,0.16096502744431296,0.13040504513266574,0.2643019918050307,normal
2024-01-01 00:00:07.190,0.16488654213532403,-0.022036455831933144,3.5647222914250682,-0.0879273645739624,0.5050746743045675,-0.008614253803367306,normal
2024-01-01 00:00:07.200,-0.25754855741609206,-0.10975853258808645,2.3750746056165015,-0.2937803430784872,-0.47251551364572714,-0.17406533881266825,normal
2024-01-01 00:00:07.210,0.08020296655339547,0.6923954318165281,1.3293855795670138,0.951658944666665,-0.29918093821202324,0.037737933986598686,normal
2024-01-01 00:00:07.220,0.038589579967407646,0.16309228652848973,0.4136981123611676,-0.36123564476037795,0.10342863588467624,0.7440288526806005,normal
2024-01-01 00:00:07.230,0.0709432127176724,0.1979982016418624,0.8861213390957878,0.2933320224150452,0.48071108829488446,-0.4735262732052047,normal
2024-01-01 00:00:07.240,0.164934946646719,0.21857681300577028,1.9706380791424476,-0.19827108528716042,0.2027585182273095,0.4383624535356044,normal
2024-01-01 00:00:07.250,-0.3897511157243927,0.38933967529677543,3.019709573588475,-0.03155688851148979,0.19486516986532423,-0.4427652799276592,normal
2024-01-01 00:00:07.260,0.05898190755280387,-0.08975852558795266,3.964621395957506,0.6157043820935307,-0.009122382433846174,-0.9490312945579683,normal
2024-01-01 00:00:07.270,0.044364049609414334,-0.22254100367778018,5.168653191136838,0.387566356355238,0.21007296890362775,-0.29673163497730093,normal
2024-01-01 00:00:07.280,-0.286705205193794,0.2655287979930358,5.70411052266008,-0.7855637667272286,-0.6839273984447891,-0.41157120266382413,normal
2024-01-01 00:00:07.290,0.7863794991707366,0.32425380674787285,6.98298994442248,-1.6145562896861432,-0.2564171237619862,-0.23341615061037527,normal
2024-01-01 00:00:07.300,-0.2964256952767864,0.23934414580615931,7.551072124550887,0.38529678553580404,-1.094424302404551,0.1347420068918515,normal
2024-01-01 00:00:07.310,0.1274649652253468,0.3076331876360724,8.048734070591651,0.2757052724557194,-0.3563025710100075,0.45267399639291034,normal
2024-01-01 00:00:07.320,-0.586652734868739,0.2704321520346943,8.714721360525376,0.16895149065939094,-0.02902752472638405,-0.2297968641512388,normal
2024-01-01 00:00:07.330,-0.13178146380561392,-0.24723436888175584,9.14433096327877,0.5945879590495086,0.02850652173342173,-0.1470539034655291,normal
2024-01-01 00:00:07.340,-0.12367729353470258,0.6134670416437514,9.580669974985241,-0.7984178862257253,-0.8476161724772059,-0.503711949172626,normal
2024-01-01 00:00:07.350,-0.3510890548683849,-0.492991557408187,9.588675115087616,0.3930240150420702,0.2435615199563223,0.6112636321514592,normal
2024-01-01 00:00:07.360,0.2314333941858357,0.43932157828346635,9.735221722874574,1.833308273359477,-0.0016077909639662636,-0.6207775101467549,normal
2024-01-01 00:00:07.370,-0.27766107399133666,0.16310470096416385,9.525410587116946,1.0617883003791226,0.3434986336398114,0.3743017135276216,normal
2024-01-01 00:00:07.380,0.000788665121591549,-0.3337387166685177,9.515452794432452,-0.13738037386129423,-0.1874849923696521,0.0991799030385387,normal
2024-01-01 00:00:07.390,0.08800047337967412,0.1602861341182932,9.557385200929506,-1.1157111276267255,0.5513307586273374,0.4886003665614965,normal
2024-01-01 00:00:07.400,0.050286801680668985,0.10768968546239967,9.034400104836358,0.17838121790457392,0.035465360753717964,-0.531077361081461,normal
2024-01-01 00:00:07.410,-0.024492690499120937,0.07022052083554374,8.292855200220068,-0.657780113122755,-0.3769653715348777,0.38897856163795375,normal
2024-01-01 00:00:07.420,-0.1384343124939124,-0.014430692179172807,7.776677121260746,0.8453036566038348,-0.940533184806501,-0.3852173949279718,normal
2024-01-01 00:00:07.430,0.16308488221581738,-0.14732831476904573,6.649081349718936,0.08658448321646715,0.22380544764496002,0.2512555145576607,normal
2024-01-01 00:00:07.440,0.0261711555061128,0.1813413061305946,6.231205422772832,0.4208751013183776,0.37565726122177495,-0.6508022166769224,normal
2024-01-01 00:00:07.450,0.4533407077587921,0.5174702068112719,5.39485103788461,0.8406807304911372,-0.06806703838376559,-0.29840223803949284,normal
2024-01-01 00:00:07.460,0.010241199532677268,0.036018427592810556,4.270367655112705,0.0387960065630354,0.29727653322773495,-0.1786760046166984,normal
2024-01-01 00:00:07.470,0.3487590411291173,0.12595803993953322,3.42713362331073,0.164073626034817,-0.501687927773169,0.244562598285585,normal
2024-01-01 00:00:07.480,-0.9439963153083952,-0.5647813952857058,2.0837572789729863,-0.23894704853230067,-0.33992604191816866,0.22399731676748547,normal
2024-01-01 00:00:07.490,-0.28208642043784965,-0.19053130615162475,1.10150492379208,-0.4052415312075984,-0.4379754111070881,-0.294556744243649,normal
2024-01-01 00:00:07.500,0.0020876031225966485,-0.2283068746948571,0.05690642992395531,-0.33015000025939945,-1.099064099095316,0.2246555428332148,normal
2024-01-01 00:00:07.510,-0.07457737350172966,-0.050209801116763104,1.048791134533262,-0.2293176871215472,-0.4904240905167046,0.41043299967882446,normal
2024-01-01 00:00:07.520,0.1949092289534243,-0.11107783769958525,2.3224921619094197,0.35214506767622766,-0.0937671352237842,0.24393661637683647,normal
2024-01-01 00:00:07.530,0.10985898330378319,-0.16305713926933216,3.5247885011789624,-0.9873778029273667,0.3943665175312835,1.0595419379733224,normal
2024-01-01 00:00:07.540,-0.3933742043591976,-0.25639496056656086,4.285668000315802,0.20082482012357822,-0.09544249533792555,0.21562903284197946,normal
2024-01-01 00:00:07.550,0.12073974592382464,-0.3114815269202415,4.993828907341392,0.2686282803420772,-0.18828814504372626,-0.2861661569076274,normal
2024-01-01 00:00:07.560,-0.04089016448746617,0.11231379858500473,6.037783111842556,0.13521655379238706,0.6746514264736944,-0.4823615200722972,normal
2024-01-01 00:00:07.570,0.007662490812901226,0.00559647510183964,7.107180827928344,-0.740280299689424,0.013145733976699782,-0.6461328968796631,normal
2024-01-01 00:00:07.580,-0.4651523089639669,0.15676176764934757,7.544996177249556,0.08033025355667017,-0.8090480298090714,-0.5597716428683176,normal
2024-01-01 00:00:07.590,0.017035838615878242,-0.37106057952302146,8.239473279142945,0.4820496166854866,-0.27188538553286884,-0.40435808748886115,normal
2024-01-01 00:00:07.600,0.06647186611392458,-0.03252142984786783,8.961173390007751,0.3010575766935292,0.03898271957790132,-0.35602528603826283,normal
2024-01-01 00:00:07.610,-0.16077362663458855,0.10925965002483887,9.384760490298738,1.0937416913641052,-0.8590550870928246,-0.23938324519009513,normal
2024-01-01 00:00:07.620,0.41832759133717784,0.1193736481298019,9.567027026291541,1.3793933240789031,0.476890548220897,-0.45063578041703084,normal
2024-01-01 00:00:07.630,-0.48153501214871225,-0.17288835084607476,9.664168385210147,-0.3253514962766099,-0.2200357750229742,0.4196985624752148,normal
2024-01-01 00:00:07.640,-0.08377550212786063,-0.030886934688259676,10.086030716491027,0.3237223064477632,0.38050572123290477,0.04259031048378692,normal
2024-01-01 00:00:07.650,-0.11161130019828532,0.22982184133766234,9.584528028171853,0.6426985480292216,-0.3050280826062184,0.11236577163908591,normal
2024-01-01 00:00:07.660,0.008512107918548157,0.0984520749932195,9.702314745316935,-0.06997052242790294,-0.20139142871714208,-0.28029734833501857,normal
2024-01-01 00:00:07.670,-0.16915314270374127,-0.42341942350793105,9.19196512422697,-1.0688550065220714,-0.14123807659078652,0.7112590716292825,normal
2024-01-01 00:00:07.680,0.42452274716624344,-0.052748381895550554,8.743375529019442,0.014091311080115252,0.48909627964536634,-0.12694713450325298,normal
2024-01-01 00:00:07.690,0.15949537822319115,-0.37353512124531013,7.844921223572371,0.41427732244097293,-0.6978366838563649,0.15733364231849056,normal
2024-01-01 00:00:07.700,0.31481181725816776,0.17638659740191492,7.520391197522793,0.241408942101235,0.7269608291410687,-0.07858056119538728,normal
2024-01-01 00:00:07.710,0.33038754695147915,0.3099351392482381,6.852855084961907,-0.719959150294406,0.7653059095706333,-0.15715895269155253,normal
2024-01-01 00:00:07.720,-0.20463398845914443,0.31932402618156647,5.805267467548495,-0.3705519874971645,-0.011908267687586651,-0.3791040941164303,normal
2024-01-01 00:00:07.730,0.29984979467965533,0.13482425135791357,4.909477089985533,-0.20527563338142069,0.7954822531484854,0.3362877726826832,normal
2024-01-01 00:00:07.740,0.1310688491829144,0.3162256901553175,4.132659861454864,0.23679323780272724,-0.7236914295777329,-0.5376415451110735,normal
2024-01-01 00:00:07.750,0.18589910330808482,-0.18822392903805188,3.127252885797504,-0.2231662767599498,0.2912137457547656,0.1711872101091822,normal
2024-01-01 00:00:07.760,-0.18887565843229745,-0.18972861779043354,1.7152249858784059,-0.35958222335980017,-0.3448250453079148,0.09999900956967568,normal
2024-01-01 00:00:07.770,0.46325967656126626,-0.0672636676160873,0.7284642801215726,0.08078563857522929,-0.4502950379980799,0.16349337956912888,normal
2024-01-01 00:00:07.780,-0.568421970271427,0.0805428032293932,0.1616314588402023,-0.36213003450566655,0.25462031314850414,0.12100974029237388,normal
2024-01-01 00:00:07.790,0.20784070846112263,-0.0720412949799567,1.4259113361101443,-0.8053880473905427,-0.09143426091327574,0.5488534484873095,normal
2024-01-01 00:00:07.800,-0.09858326406729588,0.38613455789169143,2.6015449536301505,0.8614891177191709,0.006150876721374829,-0.16881431238801492,normal
2024-01-01 00:00:07.810,0.1473872855025885,0.02979496886583661,3.4468301786521978,0.1564059058210423,0.08598665951909665,0.571458734463469,normal
2024-01-01 00:00:07.820,0.3754780780714199,-0.7625018296666216,4.585087185612835,0.19131681417770546,-0.4275890679063006,-0.4500304628434473,normal
2024-01-01 00:00:07.830,0.260198680870224,0.3655726747614563,5.607354756432342,-0.9921589726938885,1.2556685607591875,0.075138907652719,normal
2024-01-01 00:00:07.840,-0.3086182460191908,0.26877562508803265,6.271387316200813,0.4523048529645143,0.11771636583902251,0.14385536936116905,normal
2024-01-01 00:00:07.850,-0.048011920600922596,0.12706344660993335,7.45194513497928,0.6617536913337407,0.5129042072177793,0.14329010655674762,normal
2024-01-01 00:00:07.860,0.2366494623195931,0.3057714165140278,7.789813150572828,1.0810707356744902,0.004917545341018478,-0.12728239284358622,normal
2024-01-01 00:00:07.870,-0.17012037672425082,-0.11151538974606082,8.392262452989273,0.08093527627133702,-0.19373500994673346,-0.49254013433517435,normal
2024-01-01 00:00:07.880,-0.45853001555403894,0.06821393219840821,8.909784460367971,-0.08756070249501194,-0.6466425882899329,-0.17887483427527157,normal
2024-01-01 00:00:07.890,-0.3800626652034666,-0.5092652647588456,9.482726741460723,-0.5887914227173585,0.5674785097116274,-0.07838190029092075,normal
2024-01-01 00:00:07.900,-0.2666439549004087,-0.18813757499969955,9.432764119513944,0.9129245246149907,-0.9326307253016699,-0.28233376857525094,normal
2024-01-01 00:00:07.910,0.187454459560961,-0.3875469064100212,9.967812211881384,0.5624305832964147,-0.5872505745093598,-0.1827533189973102,normal
2024-01-01 00:00:07.920,-0.1329012718907017,0.2253545520894989,10.000271192591217,-1.6463312999686086,0.09575546298363287,-0.05299379184943332,normal
2024-01-01 00:00:07.930,0.22165465215334046,0.246884948724021,9.635838499427676,-0.7051816546774073,-0.5024587008388092,0.0671310462650005,normal
2024-01-01 00:00:07.940,0.03674898138239197,0.06487423482195255,9.538442826573036,0.11382732359528065,0.03681905825251702,-0.20087061615269236,normal
2024-01-01 00:00:07.950,0.32442544734914297,-0.2215791720885412,9.211168498061083,-0.3275939357969728,-0.08597685745266767,-0.12384278524054651,normal
2024-01-01 00:00:07.960,-0.5142860481382221,-0.2640995412826048,8.659305841887456,0.18603568541488696,0.12219139568362435,0.2461344352403199,normal
2024-01-01 00:00:07.970,-0.3919027674691726,-0.2329745587159567,8.188116609471775,0.35290468659052265,-0.35076177244554285,0.23633255361794914,normal
2024-01-01 00:00:07.980,-0.16350373198963633,-0.001632802316338668,7.492614889507881,0.19789475018535393,-0.34293371348981866,0.45318652085132605,normal
2024-01-01 00:00:07.990,0.4084298000672568,-0.12116191446618725,6.7146008611489,0.30223123942365726,0.034710040867341634,0.37839840162416294,normal
2024-01-01 00:00:08.000,0.06664700503943077,-0.0039037898998197824,5.661771729631279,-0.06955621146627702,0.05794901466482092,-0.7123938779887584,normal
2024-01-01 00:00:08.010,-0.09119053449028483,0.2509038884483623,4.897987906791345,-0.9922283597493305,0.1765571554222618,0.07220682637706113,normal
2024-01-01 00:00:08.020,0.0028700872666746926,-0.07749540703268493,3.807928537821869,0.16952036457043498,0.6267443498082363,0.18995985175571597,normal
2024-01-01 00:00:08.030,0.025978696751673164,0.08236198386570671,2.9426559617785473,0.33230759042379915,2.138180176756352,0.05998071002171227,normal
