timestamp,acc_x,acc_y,acc_z,gyro_x,gyro_y,gyro_z
2024-01-01 00:00:00.000,0.22969467077697642,-0.01640217096141445,0.2057303922564244,-0.8502141190656587,0.310325783806049,-0.3176629415968294
2024-01-01 00:00:00.010,-0.14899020448395817,0.04321912612320071,1.0741473977416116,-0.4356740983997831,-0.9364804544949129,-0.4488643847475921
2024-01-01 00:00:00.020,-0.615216927118816,-0.24953893336256272,2.1649937214643864,-0.41570427805662,-0.03125976529619488,0.21182617244887153
2024-01-01 00:00:00.030,-0.0018691775249841639,0.5615988828480919,3.244035804322606,-0.3446614906681252,0.40373787535646805,-0.8906282301135903
2024-01-01 00:00:00.040,0.15800601618450422,0.37476873120924353,4.302805024390951,-0.36954930098043404,0.6619682287642912,-0.09468795219661924
2024-01-01 00:00:00.050,-0.15384625954464248,-0.00028030281058417353,5.163344439598038,0.2747224047358298,0.19656824189965122,-0.22273292876729323
2024-01-01 00:00:00.060,-0.08815959194238153,0.05044847759841128,6.229176331459367,-0.0861728404067651,0.7612727730913758,-0.02439592249818353
2024-01-01 00:00:00.070,-0.20891821269673055,-0.07512311993498584,7.2886421078460595,-0.6077557846346731,0.7029371318446628,-0.5612746095883848
2024-01-01 00:00:00.080,0.14014543694636797,0.3360331090590987,7.541458454498324,-1.0028578559562726,-0.12713202436521048,-0.06294181021370714
2024-01-01 00:00:00.090,-0.34376608237684436,0.3735983313310653,8.307970828192184,0.2587990530991516,-0.3840045577690192,-0.24215942763997636
2024-01-01 00:00:00.100,0.43365248840790066,0.30929831106620476,9.00715586181994,0.13585658612841595,0.05966470394203997,0.12882834694951506
2024-01-01 00:00:00.110,0.1699976198814073,-0.031384313110322706,9.242811795256491,0.5226023578169133,-0.33615651450131956,0.08833543896620527
2024-01-01 00:00:00.120,0.038657344509382255,0.10454263728510181,9.38485970694499,0.7183948317409805,-0.8421585982114876,-0.06313020110608555
2024-01-01 00:00:00.130,-0.03566404373666575,0.0514342000635803,9.612235917526036,-0.2922715168586174,0.28006140718743666,-0.48075454449944705
2024-01-01 00:00:00.140,0.5039261891324226,0.16031400424797243,9.77386480557644,-0.8365925648491591,0.6037460076401397,-0.5140768366755575
2024-01-01 00:00:00.150,0.13984710003593828,0.331076578062174,9.82602621761736,-0.2912769067882718,0.39996729863647373,-0.3541101877584135
2024-01-01 00:00:00.160,-0.18452043238467228,0.2828338358985665,9.526760861733939,0.8326161462438766,0.013301264694542,-0.4010312571779711
2024-01-01 00:00:00.170,0.04259567152588394,-0.05437445275583021,9.31110624742449,-0.945281365345435,0.4229131653999953,-0.19324929404865193
2024-01-01 00:00:00.180,0.20312945635545682,-0.12061672682512807,8.937859792127666,0.09538954438468335,-0.2609601485187493,0.01058435610524139
2024-01-01 00:00:00.190,-0.2689615048469033,0.3381264215003591,8.257955528580387,0.48479526877147083,-0.708220766916637,-0.11868884213812954
2024-01-01 00:00:00.200,0.2586447177670221,-0.14683780977541205,7.514446912498036,0.012191109055190453,-0.5774678543054469,-0.43928206775627054
2024-01-01 00:00:00.210,-0.06497691532150361,-0.14551747516416078,6.65654371060218,-0.17972386273409952,-1.0613734645582376,-0.3331266588287543
2024-01-01 00:00:00.220,0.10230176174890325,0.23092220144904746,6.232578159121771,-0.3538004166266281,-0.5078709175925016,0.09710935372497899
2024-01-01 00:00:00.230,0.045122808842472086,0.2557017556475873,5.007969672160318,0.3942283234462028,0.9512306563540034,0.9437240601785045
2024-01-01 00:00:00.240,-0.5325952401026199,-0.6540316844331738,4.302783811886062,-0.3144815709751424,1.272946407754975,-0.42000605804267793
2024-01-01 00:00:00.250,-0.15721288705944542,-0.32110840548550595,2.99720503391348,-0.35020502235458084,0.13490783486191943,-0.1608324028081401
2024-01-01 00:00:00.260,0.19550928098861342,0.17323315218673496,1.91014155849965,-0.06550524215821532,-0.18176311124600128,-0.1231150024377061
2024-01-01 00:00:00.270,-0.5972873717468971,0.5443199730965969,0.9284050331347116,0.023182331340301256,-0.5048995451617637,0.06449995904832137
2024-01-01 00:00:00.280,-0.40073267774398263,0.3304549089723598,0.1580541740111763,-0.8343491526767953,-0.8272702613011291,-0.23635779988222738
2024-01-01 00:00:00.290,0.15448731555388634,0.06215000835588181,1.5434713478736186,0.10841766077135262,0.9329380631031338,-0.17695630184832614
2024-01-01 00:00:00.300,-0.12133151246002516,0.23911516054372697,2.3727677115506327,-0.7419270832978083,-1.3363044379635691,-0.36497638629865975
2024-01-01 00:00:00.310,0.009204417056904791,-0.2839170004439999,3.316476551346958,-0.6816127890325359,0.5490036712916918,-0.19830252430819836
2024-01-01 00:00:00.320,-0.4360531892666202,0.2526473022398287,4.442371819741164,-0.6353465758666689,-1.1887632220645559,-0.33802686908078117
2024-01-01 00:00:00.330,-0.07115365743376427,0.15618633629482512,5.494426952656942,0.1560326124357486,-0.7585673972250457,-0.25237790459330295
2024-01-01 00:00:00.340,0.0658343401405541,-0.36427144688488416,6.273671855574613,-0.4808451777575108,0.3022729868826652,0.6702176596018738
2024-01-01 00:00:00.350,0.010391712659618793,-0.3451925064602529,7.182592474616985,-0.9965281855352554,-0.3875853963395415,0.4114148987072097
2024-01-01 00:00:00.360,-0.29548932173625475,0.037019199094020246,7.65622964538416,0.14748768973264306,1.7035414133942608,-0.11217836446147539
2024-01-01 00:00:00.370,0.3895535253383984,-0.30410083693971274,8.340820531397233,-0.4938017315083995,-0.05283835789139189,-0.5167758899482621
2024-01-01 00:00:00.380,-0.30395769533711814,0.002308280564582219,9.134874608384667,0.057061083021214126,0.7661285385660398,0.1998322143066959
2024-01-01 00:00:00.390,-0.23105847252552175,-0.23773914010241118,9.14731300695208,0.3317412216584541,-0.9349790735692887,-0.21554324503265013
2024-01-01 00:00:00.400,0.49646375655511105,0.05245155667146296,9.64488097891311,-0.45784353758795804,-0.1092329675807351,0.04850421163567144
2024-01-01 00:00:00.410,-0.4120368585065912,0.3243915956178683,9.77368871383777,0.5648733028691031,0.7421342758339121,-0.13020423898887362
2024-01-01 00:00:00.420,0.15243936225614294,-0.7105791619585001,9.645461290513389,-0.7631961156067472,1.0220707835830967,-0.25867806014748146
2024-01-01 00:00:00.430,-0.043803038769098364,0.08183430625140219,9.643591649101326,-0.17870521834102895,0.5194970632819403,0.06290659482592273
2024-01-01 00:00:00.440,-0.3414758368306275,0.4047428609298005,9.532004961894351,0.5951908191761978,-1.9824027731070322,-0.21295446432751777
2024-01-01 00:00:00.450,0.19242384905044563,0.7639999365628464,9.285998800543311,0.7480770433524446,-0.033083723964916587,-0.28971137448190953
2024-01-01 00:00:00.460,0.37488494224446733,0.6504238542486,8.928591765603928,0.031194590901979385,0.7796510347027273,-0.07688538185942598
2024-01-01 00:00:00.470,0.2638448579041118,0.00112218732381722,8.061294141882499,-0.4884979392258573,0.6826528754596166,-0.3515188512921178
2024-01-01 00:00:00.480,0.14771382593450852,0.025769344976841784,7.130210351262719,-0.11070401749767217,0.4258934342043843,-0.33669344886917707
2024-01-01 00:00:00.490,-0.049525336559278384,-0.10515700997065047,6.53113041205325,0.5629512725880406,1.5191558075938745,0.07566699099173277
2024-01-01 00:00:00.500,0.14681599142518517,0.21993086648982205,5.7645110287549794,-0.3463513326449571,-0.2749213277927608,0.5183385953561719
2024-01-01 00:00:00.510,-0.5733180101567397,-0.019257484593179577,4.865262414308212,-0.0012324462407294037,-0.6558029634714292,0.513864446180263
2024-01-01 00:00:00.520,0.03738224409606695,0.049612681187536485,3.6731059740891676,-0.19233838277704537,-0.22430825779484337,-0.2451902360032636
2024-01-01 00:00:00.530,-0.5724307066446103,0.16337039679007415,2.58819647187708,-0.4532407400097442,0.5644354029209333,-0.4096027800041739
2024-01-01 00:00:00.540,-0.14942154548370176,0.07620419670003462,1.6010763649608566,0.19204369194117574,-1.245085384063581,-0.04869961705552619
2024-01-01 00:00:00.550,0.3258024001129851,0.05221315053619309,0.7020199783985203,0.5672625080696281,-0.08543646446000121,0.5607351082862133
2024-01-01 00:00:00.560,0.31664175865963157,0.5338798477235459,0.6890211549557852,0.9433540895951886,-0.39085320807460305,-0.38932560648294345
2024-01-01 00:00:00.570,0.06808408760427112,-0.1799065309413987,1.716424338024738,0.04275921906370612,-0.534888076308083,0.09701511182911163
2024-01-01 00:00:00.580,0.2850202040675278,0.5790338436544283,2.5163077591662093,-0.27680403957543265,-1.577286052564286,-0.1118782660372169
2024-01-01 00:00:00.590,-0.12217194501388147,0.3796367707555056,3.8412482829471895,-0.3705871175902231,-0.6251913647848792,0.0860680399335242
2024-01-01 00:00:00.600,-0.21428769282494917,0.36826069641968373,4.708695437396499,0.3730544352745178,0.524188995109939,0.026909049320437067
2024-01-01 00:00:00.610,-0.0007008372455839957,-0.30876537556733696,5.765459101387366,-0.6122923135846509,0.7930870949324694,0.0857328029500323
2024-01-01 00:00:00.620,0.40006324083455697,-0.03136227042449011,6.610970170144139,-0.43156392078582906,0.35938535708987474,0.08090804047644513
2024-01-01 00:00:00.630,-0.14739783269038265,0.13584152228273952,7.101880985514166,0.1865036716293067,0.9201585779146145,0.21718079916337454
2024-01-01 00:00:00.640,-0.1843061190645438,-0.027751292926177142,7.944486115155582,0.18533068134420452,0.04292215459173915,-0.28144954780542
2024-01-01 00:00:00.650,0.19029526105615555,0.5968725954566301,8.443658332016186,0.13391408864220491,-0.6362441053070746,-0.6182027230928371
2024-01-01 00:00:00.660,0.16725462577182815,0.15846589086855228,9.114468593944933,-0.2337305356492571,-0.028994295037107508,-0.12359918268776018
2024-01-01 00:00:00.670,-0.2453315805325775,-0.46934997145437063,9.350409978987491,0.20139659935977652,-0.14181633551819772,-0.5837790601615608
2024-01-01 00:00:00.680,-0.015820173981531196,-0.1736789577958794,9.670083648496249,-0.6246488171958504,-0.020287188482019738,0.4204332049205159
2024-01-01 00:00:00.690,-0.23573042981726117,0.1481322532300254,9.927554224544675,-0.6820863733725242,0.3485923206454828,-0.40807318603444964
2024-01-01 00:00:00.700,0.12537833991070269,-0.08125761223123085,9.890985803690755,-0.6778726201968731,-0.075020220068773,0.3140533027920932
2024-01-01 00:00:00.710,-0.18214759908994066,0.3615825531600066,9.796205139788727,-0.2903244392780327,-0.35918635706935026,0.015310074847476785
2024-01-01 00:00:00.720,0.6843002749464624,-0.23104730718040647,9.489531519691319,0.07353178963102752,0.6696530716212845,-0.15626408264398425
2024-01-01 00:00:00.730,0.2734091860293048,0.010289438897500646,9.075527041908137,0.3338279246255346,-0.15069805573487122,0.18778709755695805
2024-01-01 00:00:00.740,-0.09550742461345461,-0.5908179391875202,8.404636198732831,0.20318036867339212,-0.5401705719485536,-0.1260594051954434
2024-01-01 00:00:00.750,-0.05463391353435738,0.3027152465225749,7.753855834753107,0.07958420022396498,-0.6474493241255322,-0.9946767392701031
2024-01-01 00:00:00.760,0.36829703514714157,0.14700475152889472,7.187453305998358,0.8160699151791273,-0.13541995999615222,0.31566205518885504
2024-01-01 00:00:00.770,-0.2673241771066879,-0.15359653139080834,6.492765457698603,-0.22307418156552383,-0.8008708818487256,-0.2854988999667328
2024-01-01 00:00:00.780,0.1191443830847968,0.12555745834579202,5.586215189044801,-0.8526340626025464,0.173070434743813,-0.41945466923203273
2024-01-01 00:00:00.790,-0.27182590204473644,-0.5257560089191594,4.6552038000281035,0.8328069994331585,0.4975448557560601,-0.14399582808683978
2024-01-01 00:00:00.800,0.3912997097044851,-0.036654949227892954,3.5005494605202374,-0.4035229686223167,-0.44691113056589743,0.6063852239577885
2024-01-01 00:00:00.810,-0.05815737046558625,0.13128522074937796,2.6070339237903126,-0.49027184147179326,-0.7282723326144068,-0.3943830854070465
2024-01-01 00:00:00.820,0.2397876154405054,0.21638292382707122,1.2703083211029504,0.1636886847211565,-0.41507740898552714,-0.2977271684483707
2024-01-01 00:00:00.830,-0.11812087718265829,0.2759882028638335,0.5659164062777039,-0.1764847701156447,-0.9937849036912575,0.28930174793515295
2024-01-01 00:00:00.840,0.35188796208921247,-0.5734068241539908,0.5251555199502926,-0.23560008246418568,-0.2680199048806781,0.525464315798674
2024-01-01 00:00:00.850,0.32365243700826185,-0.1977446505062412,1.831311985529545,-0.11080141469190151,0.7641060013440053,-0.6834527501311763
2024-01-01 00:00:00.860,-0.059100801005120225,0.07745447402620231,2.817606979325659,-0.9921314411905906,-0.3735499082519065,-0.30867007110958783
2024-01-01 00:00:00.870,0.1421380353694438,-0.10889358518978243,3.947305350621262,0.29862149956246464,0.11471109676450643,-0.18560248790281803
2024-01-01 00:00:00.880,0.35472827384791716,-0.378342902212279,5.030993369146492,-0.33121906472896673,-1.1338100512105518,0.1060041452876984
2024-01-01 00:00:00.890,-0.0036423838862899515,0.49649490210423247,5.584658262303054,-0.24976337882774624,0.4160500706934848,0.6322903806028966
2024-01-01 00:00:00.900,-0.29011786474022183,-0.40768033561879297,6.729921941736859,-1.4960840916049416,-0.2566703747591801,0.13433140180480402
2024-01-01 00:00:00.910,-0.04665061358644061,0.1716070747488162,7.377984756690476,0.2844466606236742,-0.8664641580313808,-0.2687812724817412
2024-01-01 00:00:00.920,-0.15346881993535155,-0.44119809535268384,8.121440975774233,-0.09651827236844211,-0.3830867780094007,-0.22781034215892731
2024-01-01 00:00:00.930,-0.3436293597494954,0.08165749064282053,8.843232033422078,-1.0906709315396295,0.3009202729326399,-0.25349611883236395
2024-01-01 00:00:00.940,0.09159670953811147,-0.07850363006824093,9.07204711903207,-0.022263223336696773,1.3116594977041884,-0.23008105382961466
2024-01-01 00:00:00.950,-0.00954191772186753,-0.3035611852037043,9.43837425659291,-0.4263648669652807,-0.11234255119251266,0.006752845606349806
2024-01-01 00:00:00.960,-0.19441863786945787,0.42636337834927157,9.635317015930385,0.22074416654982965,-0.32281177804329375,0.055485154238116924
2024-01-01 00:00:00.970,0.27912524814446543,0.08895226846213587,9.96578359384429,-0.9595068182165776,0.06936612536234436,0.12534981809717097
2024-01-01 00:00:00.980,0.34235067932764224,0.014899220073347423,9.751519679274569,-0.15546480472671825,-0.21812068001247625,-0.062429153980382075
2024-01-01 00:00:00.990,0.2782305030954976,0.3027770338272158,9.855579665452801,1.6886693134467905,-0.45875677776688056,-0.08709247064281245
2024-01-01 00:00:01.000,-0.039896998437077814,-0.12453609639102475,9.539519357898282,0.9144265779654903,0.3903600316190842,0.6422611277197723
2024-01-01 00:00:01.010,0.4151442770576183,-0.41997456572123737,8.939851925779696,0.41559276040857895,0.6059134076561964,-0.18349249479291677
2024-01-01 00:00:01.020,0.41441792238654396,-0.3414158105319255,8.6974856162292,0.04672249555221468,-0.18400261200932808,0.39855139984535526
2024-01-01 00:00:01.030,0.21686953558620756,0.501449212854204,7.6715041830531305,0.27570094944303347,0.2038301757747456,0.2292038584598095
2024-01-01 00:00:01.040,0.15862834042469104,0.38808808691758906,6.920283934078609,0.24166959177485575,-0.09376721319126105,-0.08252358749114184
2024-01-01 00:00:01.050,0.22563479332767794,-0.5358491905550951,6.317529670753655,-0.12229108692333988,-0.45922706873927,-0.11046062207764891
2024-01-01 00:00:01.060,0.10324062856535052,-0.11601933695401802,5.211305253391781,0.2313145278581636,-0.34367068919763705,0.4012603135045736
2024-01-01 00:00:01.070,0.13233559336506884,-0.06466690714349575,4.420491385329243,-0.23712215242419843,-0.20886584745158976,0.2663116134796487
2024-01-01 00:00:01.080,0.30035130479901945,0.18470404575147564,3.304602452025477,-0.5449748326076959,0.20487901935259886,-0.3325266077715
2024-01-01 00:00:01.090,-0.07099697239363452,-0.07818269134907518,2.227078429613748,0.974581940075805,-0.44712848418299395,0.22422934359279642
2024-01-01 00:00:01.100,0.3276629258129212,-0.509384278981351,1.302653407588522,0.24019302658390398,0.13576800885901033,0.14345892059498624
2024-01-01 00:00:01.110,0.4955497509917215,0.18834119632980872,-0.007500993332067982,-0.464620016422469,-0.6309790462575573,-0.14455802357258543
2024-01-01 00:00:01.120,-0.15096600395741766,-0.09976732490587249,1.1198944359052647,0.5424945628511327,-0.13145104194457202,-0.409035238074855
2024-01-01 00:00:01.130,-0.20499929975575815,-0.11901524396440213,2.2032354368574727,-0.7364322980384066,0.7395339183798124,0.17656224445607488
2024-01-01 00:00:01.140,-0.01576756070738152,0.36777726585517456,3.4549101750829836,0.0108698076175136,0.0040310087508083755,0.5216409736645629
2024-01-01 00:00:01.150,-0.2739021899760143,0.21671095737399343,3.917895245083777,-0.3412807434582023,1.0373651709098524,0.20214899386228288
2024-01-01 00:00:01.160,0.35693059581318315,0.3054952410961079,5.081441887143815,-0.552909670726389,0.913694406786024,0.42099476056131535
2024-01-01 00:00:01.170,0.32232682377815447,-0.21886591382132947,5.9881263368709465,0.6443676456902471,0.48977069141264257,-0.7392933446104729
2024-01-01 00:00:01.180,-0.3320154550840129,0.4725353142070976,6.918778282602722,-0.07805150947432077,0.43251149896492586,-0.20117824979235593
2024-01-01 00:00:01.190,0.13629169013815368,-0.1491353877408213,7.532046108213442,1.058756932586189,0.2798650245668493,-0.38602357019552447
2024-01-01 00:00:01.200,0.015220768503241824,0.115058469977176,8.336135301322154,0.21540988769397348,0.6551064563553274,-0.401809195914832
2024-01-01 00:00:01.210,-0.20652516279493013,-0.2631687808300766,8.957207319724775,-0.18188088620208712,0.07604384485160726,0.14028035019513319
2024-01-01 00:00:01.220,-0.4106042095424025,0.23109042735955426,9.272498806278037,-0.07560166531847644,1.3372391895700166,0.5119917282638362
2024-01-01 00:00:01.230,0.03075080710820093,0.4713863545655155,9.278873059157924,0.23481935316806204,0.146612105596169,0.21783695455285715
2024-01-01 00:00:01.240,0.08963447843713346,-0.22840995948057813,9.834603925851773,0.5282169141839356,0.638222044311985,0.19980782697188104
2024-01-01 00:00:01.250,-0.1877012479092006,-0.10741042541604187,9.697585687537376,-0.010521709648160255,-0.06129635862777868,-0.2383839318575056
2024-01-01 00:00:01.260,-0.03240165700277358,0.4138990001801861,9.899517220738872,-0.054680730982502895,0.7462984348832709,-0.47306048333846434
2024-01-01 00:00:01.270,-0.08262818695682225,0.1736211060797145,9.519390220017815,0.6769781981183259,-0.4194069582633172,0.1396126762758109
2024-01-01 00:00:01.280,0.3200031865386428,0.3338772252125354,9.002289377243411,-0.1260850692285918,-0.3800845636071955,-0.0009487626189953806
2024-01-01 00:00:01.290,0.3093225084528923,0.2227998507280277,8.659956457253182,-0.04001366106802838,-0.07927116918482595,-0.6037648950646963
2024-01-01 00:00:01.300,-0.0015250771575233927,0.9552193759332765,8.280757188765993,0.37260541679324977,0.6215336987876134,-0.49884078818281424
2024-01-01 00:00:01.310,-0.24918402060083106,-0.2651823058755301,7.5825475186252325,0.15187002369845823,-0.45028722027303403,-0.05379465881964008
2024-01-01 00:00:01.320,0.15979214066177247,-0.24425679631367578,6.925426512213007,-0.7716547403813024,-0.8594519497317251,-0.12584510624293235
2024-01-01 00:00:01.330,0.46059128202752164,-0.3735220388857507,6.027027046920627,0.37221647312452755,-0.9651940421522041,0.8609649653723873
2024-01-01 00:00:01.340,0.11268907528784008,-0.10475588094090224,5.2177079119438226,-0.9045705269503803,-0.545915512849658,-0.1569761084136318
2024-01-01 00:00:01.350,0.09258525245757084,0.5431135216452683,4.1751470871676375,0.18499337257201906,-1.4313535580192502,-0.7646207259819746
2024-01-01 00:00:01.360,0.2110761978483888,0.021382440174635076,3.198018357065814,0.636499192778928,0.22785678208419807,0.6445529467090437
2024-01-01 00:00:01.370,-0.30867232697639435,-0.3906960180441832,2.02219900394007,0.9926118636861527,0.7982299598456797,-0.3990562401924724
2024-01-01 00:00:01.380,0.2987770130585787,-0.10586288540768639,0.9754245378467792,0.6926037029161918,-0.5636971236611826,0.21067120404837708
2024-01-01 00:00:01.390,-0.010662338211102866,-0.46560854270529406,-0.09074507949915131,1.2671100256321577,0.04741113267579945,-0.45358448785277206
2024-01-01 00:00:01.400,-0.0015597824825629852,-0.05852700198972971,1.1959231365054848,0.3095429056382319,0.17107579127806383,-0.2969571140350328
2024-01-01 00:00:01.410,-0.3390037985778996,0.3888656146582433,2.3638920748546486,-0.6797904289139485,0.12916859253584503,0.3695911031035234
2024-01-01 00:00:01.420,0.05105303903048317,0.23565318310010624,3.2284693531949555,-0.5118479126648675,-0.6160288595595003,0.5630273843107576
2024-01-01 00:00:01.430,0.08623685520063433,-0.04253062732948872,4.6157427912227655,0.5761520505104386,-0.39589998633642787,0.015406272831783144
2024-01-01 00:00:01.440,-0.48965523762635965,-0.0987264282603315,5.361620069213669,0.8774010293352132,0.16882641647075547,-0.1163598245817748
2024-01-01 00:00:01.450,0.13465258327259996,-0.07099753488229638,6.033677546157632,0.08717732770552657,0.5085911372401634,-0.5146565742516052
2024-01-01 00:00:01.460,-0.6576927187109697,-0.5965100600823854,6.867442529816778,-0.4639917775423315,-0.2387875399679357,0.01565952772200576
2024-01-01 00:00:01.470,0.03569450438525226,0.2545989073377989,7.744896246483546,-0.8981688694592603,-0.17054985196192887,0.26232392291838785
2024-01-01 00:00:01.480,0.08223989511957364,-0.07380067595556554,8.532085478313466,1.2102243899957097,-0.9092431195361994,-0.47817558854125286
2024-01-01 00:00:01.490,0.06208851662384785,0.2594366753751607,8.769502068392894,0.6900230111058998,0.4234539067237663,0.16097788681867614
2024-01-01 00:00:01.500,-0.06292645654260844,-0.5239664077682092,9.339666583878701,0.07890564012377918,-0.4489145164702249,-0.16747394991297102
2024-01-01 00:00:01.510,0.155912970075483,0.08421008280480191,9.398245535199786,-0.4071471153493117,-0.7157579583380503,-0.27745797981484516
2024-01-01 00:00:01.520,0.378546295501677,0.04043235496947027,9.895828618707705,0.5199229163657965,0.2927444133055319,0.5818552177395174
2024-01-01 00:00:01.530,0.28759101173733925,0.08498536246683075,9.741477151589853,1.057372197970234,0.635836069090617,0.7645326377571338
2024-01-01 00:00:01.540,0.2927950542751469,0.26625708195506237,9.74500777235134,0.5546371737332548,-0.17927991558385784,0.6097187839232541
2024-01-01 00:00:01.550,-0.4034585575067084,-0.04557038689555537,9.630696539924767,-0.48216557152343636,0.37909841359596985,-0.053007010584095245
2024-01-01 00:00:01.560,-0.17261640121242153,-0.41302739961906293,8.995080014161527,-0.48659007852528174,0.3489639464826786,-0.0370022551923393
2024-01-01 00:00:01.570,0.20021754927623167,-0.3609233199929104,8.483096415806902,0.35352721273167265,-0.03563699244740193,-0.11861495516946947
2024-01-01 00:00:01.580,-0.8273146396844349,-0.16733792143457746,7.821631257114366,0.3906894491250051,1.5579161948251599,0.051513938790805465
2024-01-01 00:00:01.590,-0.18524287699558045,0.20955846618439053,7.172961934029182,-0.09974190265651756,-0.39374788438781483,0.11116343314606754
2024-01-01 00:00:01.600,0.018686203993369777,-0.06980546702738637,7.155311182435932,0.9683677846923943,0.019613197891815135,-0.00034208846730484006
2024-01-01 00:00:01.610,-0.19367296115422641,-0.43649788674088824,5.918883754964309,-0.7252037553883446,0.6322281480294702,0.9610092047553591
2024-01-01 00:00:01.620,0.19133844305621234,0.20765408075936884,5.09759987226876,-0.13537737152432053,-0.6647171683589138,-0.15760811689788892
2024-01-01 00:00:01.630,0.2512446808454547,-0.07371611274196008,3.8695261199459137,0.9628735066133788,-0.3719346179768349,0.2736542178238638
2024-01-01 00:00:01.640,-0.033054321247586255,-0.5060189992288308,2.847991792460899,-0.10272554209987694,-0.06260711657292133,0.03785118937573483
2024-01-01 00:00:01.650,0.1710180713980992,0.08626917842763002,1.7503124198642543,-0.3460552531911432,-0.3834004319862123,0.0345897921618644
2024-01-01 00:00:01.660,0.2369314728903964,0.2724280647596086,0.8249490761811846,-0.8802863487126869,0.36046248895709954,0.06417390403031402
2024-01-01 00:00:01.670,-0.6229684475718308,0.1367312618197218,0.19279802931400244,0.04130222852594115,0.18233021478045616,-0.2740830982384178
2024-01-01 00:00:01.680,-0.10452865326028492,-0.02908779144099262,1.45608315594239,-0.5689850072735964,0.2106392532106616,-0.31835609865459735
2024-01-01 00:00:01.690,-0.14613797270121814,0.2594833730651695,2.609632601926907,0.5509754679443953,-0.01887031957200979,-0.06529929648658554
2024-01-01 00:00:01.700,-0.03843327737542282,0.3950624720653143,3.6274299974841724,0.26880275836133216,0.5361234800507803,0.21926974910964062
2024-01-01 00:00:01.710,-0.11953551309982727,-0.05005945280282267,4.511610882395347,-0.2064971187767917,-0.03385150016079364,-0.13926057898006042
2024-01-01 00:00:01.720,-0.04195367824868734,0.04606324309526408,5.381256831325511,-0.3354210252898225,-0.19685192235747007,-0.516798991973356
2024-01-01 00:00:01.730,0.34873634926593317,-0.1670159263557085,6.17868582438621,-0.48289185333018764,-0.05132731017009214,-0.0813844267820484
2024-01-01 00:00:01.740,0.23562652097363015,0.142852994621074,7.128945144144435,0.992409455864383,0.27957854464885207,-0.21058955433365545
2024-01-01 00:00:01.750,0.1101953513937188,-0.11064778562653611,8.017441046702041,-0.23012495589312035,0.20293752752703575,0.29720462931770314
2024-01-01 00:00:01.760,0.18948805693877355,-0.3410641669277636,8.481816170195785,-0.3207256879527954,-0.7231418985466654,0.6129244188251034
2024-01-01 00:00:01.770,-0.2690552535246386,-0.19723184426963772,8.969085104449672,0.11799961008161704,0.7398430226100745,0.1986896241193536
2024-01-01 00:00:01.780,0.05978727160348913,0.3041000933472665,9.34637035231129,0.21649068093340182,0.07925366562607283,-0.23035358554980956
2024-01-01 00:00:01.790,-0.23601934935569938,0.07021586028333789,9.665726089694461,0.04750939924031204,-0.07784439472347993,-0.33812388583298203
2024-01-01 00:00:01.800,-0.2865699194917926,0.05357853038480739,9.826453539951526,0.35233411322403035,-0.8072973606646421,-0.20846653537300838
2024-01-01 00:00:01.810,-0.04719115801078779,0.08550986451071317,9.657510551395049,-1.3520412442615646,-0.8024429098131396,-0.5023557627372391
2024-01-01 00:00:01.820,0.013766714936007627,-0.2521913342210166,9.621825466860654,0.09128153416356855,0.47343384365443364,0.6796043542921124
2024-01-01 00:00:01.830,-0.09527069353546946,0.32792962830833056,9.574661044580603,0.6056008403187987,0.2528182770918907,-0.261814548111506
2024-01-01 00:00:01.840,-0.07762997950575741,-0.009144099340112672,9.121746432762022,-0.02881984545538754,0.4693288382050234,-0.11837217930464658
2024-01-01 00:00:01.850,0.10192443065890319,0.1817386254111746,8.291673373958952,-0.2204395563599906,0.6506450300694032,-0.4823003305937504
2024-01-01 00:00:01.860,0.5949604240625344,0.19121798045884145,7.983950650149756,0.4724871742840091,0.40819140385429525,0.19485478764119338
2024-01-01 00:00:01.870,-0.18973591192533423,-0.045957800489131555,7.258733317687373,-0.14853634577234798,0.08516938875306458,0.507534106959265
2024-01-01 00:00:01.880,0.1621179691802006,-0.10241124808197441,6.4600273091124105,-1.3260077366274345,0.9728310159754172,-0.41036583468013715
2024-01-01 00:00:01.890,0.3181588986422224,0.18967429771307817,5.724864927185504,-0.5219948331318528,0.23841104293490833,0.34415779307983274
2024-01-01 00:00:01.900,-0.13260624633031984,-0.12975069311420495,4.675771966071305,-0.6322384534956051,0.43788003180734114,-0.557867510289618
2024-01-01 00:00:01.910,-0.3345684976091829,0.32157243170264693,3.687481390839234,-0.3285772401614739,-0.7351678308003833,-0.5382503659827033
2024-01-01 00:00:01.920,0.06082421019906259,0.08253311316155815,2.7376324807987804,1.128242324351161,-0.406642786522252,-0.5214972096209973
2024-01-01 00:00:01.930,-0.09732115094616507,-0.6341888577097039,1.584687433760722,-0.14483614160253588,1.0992456479713142,-0.1506161924792865
2024-01-01 00:00:01.940,0.41968150872061477,-0.1381013871259575,0.7088409312292855,-1.0364006071736986,0.04657145782141388,-0.060696390531455154
2024-01-01 00:00:01.950,-0.038851255893135934,-0.19063608792852518,0.6412307368266227,0.037881167445578665,0.15763848412130887,-0.02562709608498365
2024-01-01 00:00:01.960,0.07691678586656829,0.5423142663272853,1.599437111884831,0.34304908549402763,-0.3421766509168773,-0.3708086592971516
2024-01-01 00:00:01.970,0.29125015919433844,-0.6833170669530011,2.9537495660951083,-1.177131958623603,0.44714419693715723,0.13434812160888912
2024-01-01 00:00:01.980,-0.421035902106947,-0.17638343243061025,3.911430661740778,0.16333091375330314,-0.504409107006441,-0.6588955906499797
2024-01-01 00:00:01.990,-0.2957459993237721,0.12457980547179773,4.765549146525663,-0.3143874049451116,-0.934623926019507,0.005558257356540943
2024-01-01 00:00:02.000,-0.26397759856640457,0.07078547490548184,6.007816993614651,0.4095074278897022,-0.46807968800708943,-0.0173875761022134
2024-01-01 00:00:02.010,-0.05151419388188445,0.22576709227350616,6.374992538883086,0.13940611676371734,0.7126892435461459,-0.10018286447914362
2024-01-01 00:00:02.020,0.13236109438701796,0.6318144075430857,7.49316997255879,-0.7886955854410231,-0.17121824130993282,-0.44470429508486786
2024-01-01 00:00:02.030,0.1927887627155895,-0.02388500642969555,8.215222196163786,-0.8709449340612867,-0.11156664769138573,0.27250744593687715
2024-01-01 00:00:02.040,-0.33724172014819104,0.18348053033938508,8.60734824528028,-0.2387445884302715,-0.02815760971422195,-0.007241523546140595
2024-01-01 00:00:02.050,-0.42051821862870015,0.2949275730845676,9.350448071619393,-0.35271227936082905,-0.10931635209643858,-0.20904070625058965
2024-01-01 00:00:02.060,0.313040691883813,0.25570999969136954,9.41016757850778,-1.0094903713520753,-0.4726291836418617,-0.02691672209447994
2024-01-01 00:00:02.070,0.3383445113294594,-0.26367102305900036,9.667644932971223,-1.4340494564001096,0.219937966515392,0.1867629101140615
2024-01-01 00:00:02.080,-0.07344359319947928,-0.16317127559259856,9.942800088030177,-0.7516974957032279,-0.3435950320631706,-0.24829813809580759
2024-01-01 00:00:02.090,0.07151715313180355,0.2202533663699021,9.856289069097242,-0.4421074078677719,-0.2809237015539421,0.18740156617841258
2024-01-01 00:00:02.100,-0.8015055222234835,0.10048167648308873,9.609707807760126,0.33950092435267204,-0.16073136090015283,-0.3659478381944849
2024-01-01 00:00:02.110,0.10006330809388893,-0.2660009308251578,9.452008221597008,-0.05011965000293645,0.4571118910059897,0.05121423347426648
2024-01-01 00:00:02.120,-0.5446487194575297,0.3581280748251228,8.567053234134764,0.2422396620152885,0.47567260059064054,-0.30710579718820946
2024-01-01 00:00:02.130,-0.5757429356324595,-0.13685041435634762,8.481691752116292,-0.45609940967509316,0.04483870674341907,-0.3446587282142438
2024-01-01 00:00:02.140,0.0665942489133029,-0.04087491750683638,7.866077243322841,-0.13878981045115615,0.2922347143244122,0.04834328402291466
2024-01-01 00:00:02.150,-0.18378989225475148,0.014467553615534437,7.092828448247847,0.3629039052436975,0.1433343762688757,0.2365066206550013
2024-01-01 00:00:02.160,0.08971159663239338,-0.04593924281158033,6.488961707498025,0.8750193916599801,0.19754488927396455,-0.5094199566545894
2024-01-01 00:00:02.170,-0.24432350165537378,-0.47056694320888176,5.543631746168991,0.1968866337769014,0.036791167637347987,-0.3544248673229203
2024-01-01 00:00:02.180,0.19161227236412498,-0.02200146120402994,4.552742428953278,-0.5337923777362255,-1.277322052244527,0.5999728369971815
2024-01-01 00:00:02.190,0.342784995078454,-0.30611456662208847,3.711952006892799,0.42118602470877525,-0.29687273754768734,0.4428970890375201
2024-01-01 00:00:02.200,0.09020703481163894,-0.2563684058687016,2.274015030615061,-0.5446914432207752,0.32926846797842996,0.39677976022122924
2024-01-01 00:00:02.210,0.011154578992498661,-0.15860833924464893,1.111486281734003,-0.6200735410361435,0.22135073984444317,-0.0591704248448624
2024-01-01 00:00:02.220,0.2251667860242602,-0.10572373782154097,0.08959557731316323,0.05567938324266101,0.24297480391472817,0.23253833655290215
2024-01-01 00:00:02.230,-0.09516875581950125,-0.27706807267371436,1.2229755069152721,-0.4778245057609109,0.07597082433032983,-0.49348534328385973
2024-01-01 00:00:02.240,0.30271358344877614,0.057614683537033584,2.043451011873925,-0.44462614514124515,-0.7280366085987352,0.2029268467140409
2024-01-01 00:00:02.250,0.3700915074537836,-0.4401618629370039,3.0416289640223364,-0.8416319701965185,0.14250200118607398,-0.06628615485846065
2024-01-01 00:00:02.260,0.13854132167745078,-0.09852556882319942,4.2633738979405384,0.41893142303089037,0.3287507507004885,0.3061689122916439
2024-01-01 00:00:02.270,-0.2523979972765164,-0.23447874342308606,5.156887212580488,0.07394266215319505,-0.7253463925920423,0.3082957568117416
2024-01-01 00:00:02.280,-0.012750403541604617,0.05038455479882795,6.119648823580361,0.3963338505654223,0.19093419181448648,-0.35218335269919665
2024-01-01 00:00:02.290,0.3327304167315864,-0.07318377870558535,6.643266657304955,-0.5735206874374775,-0.22064341495761028,0.20408636471862
2024-01-01 00:00:02.300,0.49612845796472094,-0.49032362100477694,7.591042634060265,-0.40321199107257844,-1.4852181219333942,-0.36218874858819217
2024-01-01 00:00:02.310,0.0635936153179651,-0.160952651921066,8.313973474240122,-1.0863073699924046,0.05145929090351808,-0.14388787363398065
2024-01-01 00:00:02.320,0.01276617745073984,0.32829612867195684,8.767130672483773,0.2913335683892827,-0.34595829632663844,-0.22554705889343324
2024-01-01 00:00:02.330,0.48629181919515696,-0.24989878337105803,9.095369330028054,-0.6336335226922835,-0.04029510148856105,0.036849119245459
2024-01-01 00:00:02.340,0.21621544997320277,0.46975696215252005,9.627446010731145,0.9763101475653255,-0.03802179272675014,0.46437124757764764
2024-01-01 00:00:02.350,-0.05380359036708733,-0.006387130484814836,9.762601376135965,-0.40878600891162387,0.7829733582034728,0.48038242105892154
2024-01-01 00:00:02.360,-0.046954501765840144,-0.2555707841115834,9.909401598506548,0.3213590952681943,-0.07090234257321885,0.17393301951158358
2024-01-01 00:00:02.370,-0.8969043022657515,-0.0501742477279488,9.477399366029223,-0.24234375418153942,0.3528703223124435,-0.1951933935347942
2024-01-01 00:00:02.380,0.17808578223475516,-0.7936290894912816,9.817788228324007,0.3192452156687077,-1.0391460464098117,0.13874014003281207
2024-01-01 00:00:02.390,-0.26764410139206374,-0.3582098855931277,9.298543141009455,1.1444390695331814,-0.807236954026362,-0.1581797827227537
2024-01-01 00:00:02.400,-0.19990425089450303,0.014770332112822783,8.7867659581044,-0.18441027677230737,-1.154297916561634,-0.44963745090845847
2024-01-01 00:00:02.410,-0.04394443545353965,-0.2854321379727346,8.465024370147963,0.3660193424097313,-0.073976107597003,-0.1553091766683681
2024-01-01 00:00:02.420,-0.12846054269524232,0.1940737756752227,7.6696648822600455,1.0869168869945818,0.3121960346291655,0.35760794316232775
2024-01-01 00:00:02.430,0.33856732748926793,-0.4985827520714524,7.149307187785736,-1.0255226834894056,0.37284176328463664,0.15081035447270733
2024-01-01 00:00:02.440,-0.5103210264425374,0.24892163510258625,6.153073360324583,0.44748232547570355,0.13606344964218206,-0.012948818937046374
2024-01-01 00:00:02.450,0.0498369398556042,-0.24101437670717246,5.265090418833928,-0.11553058710487528,-0.468126951701356,0.21759951599436225
2024-01-01 00:00:02.460,0.3818028614529583,-0.013730682300038717,4.451399998205623,0.5470140506769866,-0.04642859093632081,0.05075335888591663
2024-01-01 00:00:02.470,-0.375984016018287,-0.3252888001675011,3.3278937085864007,-0.2129679448885444,0.8386039454224888,-0.27015346977598553
2024-01-01 00:00:02.480,0.031158387068064473,-0.5143349057524991,2.1241123414623573,0.7859438960244812,0.046832274369373254,0.5259481498453993
2024-01-01 00:00:02.490,0.3266169822076994,-0.5572241131225508,1.046661367937901,0.3676164380897267,-0.011776727614736438,0.3423295116248815
2024-01-01 00:00:02.500,0.2207917529967999,0.034217736087993805,0.19447967639744818,-0.10517484601865862,-0.8582267657352973,-0.13934215468218922
2024-01-01 00:00:02.510,0.1472049471072058,-0.21274979986817735,1.1781610059874512,0.3615972023730731,0.500266223001359,0.19623327318294997
2024-01-01 00:00:02.520,-0.6199879269588126,0.42021777425639134,2.419534830087686,0.16539817211841484,0.619587072009936,-0.2560958997194235
2024-01-01 00:00:02.530,-0.3513563086409457,-0.15136658252350296,3.3711088557408244,0.5945511770604194,-0.2697538113076519,0.026930644464547102
2024-01-01 00:00:02.540,0.32077215262973696,-0.48914797589646347,4.236333903087263,-0.8572169660215271,0.5816891869888641,-0.34024281700557407
2024-01-01 00:00:02.550,0.008839982509720387,0.37148673482179656,5.21949754827697,-0.6325287844235052,0.66606050937578,0.15992621743276814
2024-01-01 00:00:02.560,0.3851759587718258,0.03835842328047236,6.395945657299005,-0.09171344353054611,0.39146870882129425,0.054439003115183265
2024-01-01 00:00:02.570,0.28742784957831463,-0.33317864437711053,7.0509227379601915,0.585826456069245,0.19854350346081318,0.0465317874548339
2024-01-01 00:00:02.580,-0.025378386221163878,-0.34049432686673947,7.990649586420568,0.03928114188422177,-0.23247328606996548,0.21489072459739136
2024-01-01 00:00:02.590,-0.18691385824256976,-0.40500395752130786,8.368193810862817,0.3859994682451251,0.7587250801544564,-0.1828212962921125
2024-01-01 00:00:02.600,-0.35022938648514673,0.638447226851217,8.703812415988585,0.4970190095331226,0.507158520527298,0.20374344458495552
2024-01-01 00:00:02.610,-0.5884048488200332,0.03729076908411193,9.145464979342188,-0.5218501198964159,0.14077095410082746,-0.26821148498424235
2024-01-01 00:00:02.620,-0.06500174154651998,0.3467733781406475,9.740468926432287,0.10685013408968226,0.24389483069512463,-0.2304536472780581
2024-01-01 00:00:02.630,0.23162174958294807,-0.16551778808884923,9.72404904751391,-0.5212485369289046,-1.0202100325097656,0.17659727797664876
2024-01-01 00:00:02.640,0.2734671614318165,0.42048154204184107,9.718317474905923,-0.34998822801615725,1.2415211582939085,-0.4564461529519579
2024-01-01 00:00:02.650,0.3067115114563951,0.09801927600767851,9.73049094619717,0.7245429580653054,0.13591960957706703,-0.4203133958230849
2024-01-01 00:00:02.660,0.15409560856203347,-0.32465958212078055,9.209096464704606,-0.031230547371990387,0.5832703944934393,0.0991591060764269
2024-01-01 00:00:02.670,-0.09241227509686552,-0.33049866375457293,9.222240018952581,0.5300114501296641,0.49659327802185504,-0.10547348949731693
2024-01-01 00:00:02.680,-0.00675374193686279,0.0999295090447197,8.755247220918351,0.03061800557540141,0.11288928347581562,0.3260593676959855
2024-01-01 00:00:02.690,0.5881738211674375,0.5682686669922292,8.038069104679552,0.2761403503833366,-0.2598435559955586,-0.0187996183796403
2024-01-01 00:00:02.700,-0.05062077281290164,0.3490607801184158,7.651889176519727,0.5347231512314895,0.40626059978045437,-0.0048931592858187265
2024-01-01 00:00:02.710,0.1322025091228853,-0.31996415291556496,6.877750776320709,-0.40763972725313047,-0.15521597981592553,0.035914928102376585
2024-01-01 00:00:02.720,0.5381441336878309,0.3335560345998627,5.97736432817507,-0.7003838002061957,0.7826276872592578,-0.31791655370229155
2024-01-01 00:00:02.730,0.19315095021024795,0.09010584566368346,5.089535643111145,-0.27614426409240467,0.04607253448215204,0.17517186940557736
2024-01-01 00:00:02.740,-0.20464311029607254,-0.13718521349498386,4.206531461512545,-0.07086539320780733,0.9041734743786696,-0.05199900393078619
2024-01-01 00:00:02.750,0.5359246055220315,-0.4562370318312641,3.1740034503767722,0.34855656396017426,-0.28714364379751656,0.1036421768569737
2024-01-01 00:00:02.760,-0.4086242441084706,0.5630314697945775,1.9070286999310813,0.3694085427984654,0.5101391579387866,-0.35209198420416066
2024-01-01 00:00:02.770,-0.03773024619797876,0.23201307026317014,0.729842713952543,-0.06240099720601745,-0.17466140742651104,0.06872798268393665
2024-01-01 00:00:02.780,0.1492534809072602,0.09952528350370392,0.2327566498660856,0.5701048685827738,0.1177768212562501,-0.5161596309391803
2024-01-01 00:00:02.790,0.11530640510644795,0.072990214376668,1.44072626179466,-0.5020236612593659,-0.34270959068105433,0.3707374129782499
2024-01-01 00:00:02.800,0.3211802308313958,0.1929712373361304,2.658862388850264,-0.0645703148930388,-0.39601715224240913,0.10564665713485161
2024-01-01 00:00:02.810,0.12861047495254027,-0.48181833151507586,3.531264218674184,0.4456571126245357,0.16736012106172515,-0.11972161823957764
2024-01-01 00:00:02.820,-0.16914400444773278,0.21484445636691965,4.685887815209831,0.17706959651328621,0.17057843154692096,0.08293495180100433
2024-01-01 00:00:02.830,-0.12444527280378187,0.12222090597736056,5.6444810245386945,0.529777370800688,-0.9883190987618324,0.16470849006639499
2024-01-01 00:00:02.840,-0.15518631385861575,0.008868211761783302,6.2254608612046125,0.28812310952026615,0.014272748889923682,0.5372979520251775
2024-01-01 00:00:02.850,-0.4836846370777724,-0.011365076499031571,7.1119110156438,0.2646599215238491,0.021889623008231083,-0.2065005391756121
2024-01-01 00:00:02.860,-0.004432565387654684,-0.13655300585009925,7.88475530323384,-0.09753924093012317,-0.4335869220416608,-0.697295541363866
2024-01-01 00:00:02.870,0.3814036026363718,-0.16473206325807835,8.651256416942905,-0.23096941378602065,-0.2479019990479268,-0.18162501221527533
2024-01-01 00:00:02.880,0.0004962543310170214,-0.3057513498261146,8.881610091221642,1.3078457903428515,-0.4771321161769129,0.35154813732198487
2024-01-01 00:00:02.890,-0.01912784470841593,-0.1719846483834883,9.56306244976614,-0.3327456687822114,0.07912354811939822,0.03632962189758378
2024-01-01 00:00:02.900,0.16786318649755985,0.09472216474409624,9.837675856801813,-1.2952082674059315,-0.31451505775844224,-0.2734799481021072
2024-01-01 00:00:02.910,0.5227576130360674,0.13289814256439728,9.5792376240497,-1.0552533233666412,-0.3637320192745379,0.0781144420708813
2024-01-01 00:00:02.920,-0.34946355507785,0.3427879637021403,10.101968753451152,-1.0933895650703602,0.36370797380927367,-0.41110512316827846
2024-01-01 00:00:02.930,-0.057236788407113846,-0.6833431138657835,9.637661800317467,0.3369247167337982,-0.636572797447433,0.255297910460337
2024-01-01 00:00:02.940,0.8719321601197404,-0.1332735933722694,9.495806964375063,-0.5989953408725218,0.4328647744176923,-0.1827411481337637
2024-01-01 00:00:02.950,0.3293311633811375,-0.051538585609266684,8.986197594995756,-0.3541444181661342,-0.12858576449190767,-0.17914675628904692
2024-01-01 00:00:02.960,-0.21147806610077913,-0.4958000974617855,8.580545811904573,-0.6081119293883089,-0.139336379109512,-0.1201173000773277
2024-01-01 00:00:02.970,0.1727974547213614,0.2357242153374699,8.296341579502428,-1.0935653863079369,-0.672106992353561,-0.5143302181903694
2024-01-01 00:00:02.980,-0.030524633412460155,-0.12313397384037077,7.294301068107466,-0.436779636809413,0.11408763247526829,-0.014992005696367465
2024-01-01 00:00:02.990,-0.08959154180321739,-0.4805643010868599,6.709221537198236,1.071482608991173,0.34674329941482923,0.1883024388323117
2024-01-01 00:00:03.000,-0.2336600244297593,0.16781139453455338,5.696902207444064,-0.3128397919939892,-0.02511669767313624,-0.46047707748278915
2024-01-01 00:00:03.010,0.3813647065610384,-0.5035492542613965,4.8967396106911405,-0.31380529900426946,-0.8979687714986415,0.031926886451454924
2024-01-01 00:00:03.020,-0.3301257239216574,0.2402194356120353,3.8454841826279385,-0.567629073754861,-0.26695068113603926,0.3351074066888645
2024-01-01 00:00:03.030,-0.13363337660951272,0.06056313864732111,2.6142747365294356,-1.1062828779251823,0.9505359230271029,-0.13450619398187766
2024-01-01 00:00:03.040,-0.22252678047390437,0.48273690221163496,1.5159302001721247,-0.12922978442143523,-0.5205802946678455,-0.16183360907584673
2024-01-01 00:00:03.050,-0.699290643850945,-0.3252081625182689,0.49158450734567494,0.7899484232073908,0.022208150280567458,0.47024098859740704
2024-01-01 00:00:03.060,0.04247776035970323,0.19644633079168616,0.507898870432975,-0.4378477687600802,-0.22285670763257426,0.5926441305896032
2024-01-01 00:00:03.070,0.4655267776029705,0.18317333674855493,1.4793113828561726,-0.16259583648985165,1.130029353582914,-0.3616441188604623
2024-01-01 00:00:03.080,0.026394036593539123,-0.05656149448987983,2.677202459533188,-0.4473442005885245,-0.8274237284039968,-0.13837547463279654
2024-01-01 00:00:03.090,-0.5238396902585206,0.13986288001336641,3.9769655252500544,0.8479499522654065,-0.16478238419790456,-0.17649276158738492
2024-01-01 00:00:03.100,0.4094048150156362,0.045554637111629465,4.810173701643371,1.9227937262228858,-0.15484706327613984,-0.1546262161326434
2024-01-01 00:00:03.110,-0.09170076369056626,0.5695683412022342,5.8570377049686355,-0.1831889018737396,0.19370195903915158,-0.4386286140921121
2024-01-01 00:00:03.120,-0.15424907620363135,0.5809368274888114,6.788536638167935,0.8434696939785054,-0.9119975673695009,0.43653257734565815
2024-01-01 00:00:03.130,-0.09411781307481705,0.4806082351235415,7.242635745334145,-0.44486852345875316,0.08287727002158767,0.42643409842889796
2024-01-01 00:00:03.140,0.11485965333969532,-0.1689869990003305,8.114154063707117,0.6915711746528111,0.005127392037654305,0.005432516899676424
2024-01-01 00:00:03.150,-0.18498034852809606,0.4216345023057328,8.227198418044635,0.355433900099394,-1.4967062890225977,-0.5470204566744913
2024-01-01 00:00:03.160,-0.15181357225984926,-0.5652204131683131,8.91265123877539,-0.4288289779275635,0.3528169913967456,0.2867000117896634
2024-01-01 00:00:03.170,-0.10649533578860615,-0.05111345918754794,9.446168913216388,-0.39406175043405617,0.7335053670099213,-0.7163532998162656
2024-01-01 00:00:03.180,0.6491375133287202,-0.030478618461670923,9.548453203302001,-0.09622656456213421,-0.5101814023840983,-0.2600559999396246
2024-01-01 00:00:03.190,-0.07689788155759297,-0.010228521613730005,9.848036862843305,-0.37078569398124483,-0.09539758754807111,-0.04297769042126179
2024-01-01 00:00:03.200,-0.41041566194372664,-0.019216087807306402,9.659248335614063,0.028751521226458854,0.8646271171783187,-0.3399140514857014
2024-01-01 00:00:03.210,-0.25986299559461906,0.07747803737411604,9.796773938686302,0.37215969919221065,-0.32345284920646816,-0.24506521949633042
2024-01-01 00:00:03.220,0.08251109762954692,0.19701161599055822,9.65291085098012,0.6935783181982775,0.7260943714236666,-0.6670463420034305
2024-01-01 00:00:03.230,0.19126729713923127,0.03253366743272343,9.154377319079959,0.5505470194998427,0.10330777416182428,-0.47185553464979685
2024-01-01 00:00:03.240,-0.20423534295936568,-0.06672534267848347,8.47072843730522,-0.23262572369861104,-0.6514329587948509,-0.3314447598451276
2024-01-01 00:00:03.250,-0.26564863775778375,0.035726636281460215,7.823117555826045,0.35923169223461116,-0.69199740498019,0.06890132386466527
2024-01-01 00:00:03.260,0.059241125507302365,0.02504764658549541,7.176861337690493,0.29967940593474096,-0.3719006075938691,-0.38306524805873254
2024-01-01 00:00:03.270,-0.18745077224837364,-0.17870287646524147,6.50748161857968,-0.5198443247161435,-0.9130503730766558,-0.13938860867472586
2024-01-01 00:00:03.280,-0.6160163282166928,-0.21503790749369764,5.327295911800017,0.09185703227260593,0.10572746421556303,-0.0550749218554935
2024-01-01 00:00:03.290,-0.22943586329909765,0.2510002857923579,4.700337609554066,-0.25953645584239754,-0.16561216330172734,0.3026846900613202
2024-01-01 00:00:03.300,0.6750741155072806,-0.173806187996832,3.5742006453467035,0.41477376213278144,0.5109469561087341,0.7717077055272755
2024-01-01 00:00:03.310,0.36387792205919745,0.11201201342247388,2.6752559328970174,0.9168543129427006,0.09095293905946415,-0.08203090757858544
2024-01-01 00:00:03.320,0.2990004004051494,0.18684402166391587,1.3256662433803588,-0.8503892153753774,-0.03837758742088436,0.478768509377308
2024-01-01 00:00:03.330,0.08161503494424693,0.17515667735630971,0.32075665503648465,0.01490433048621448,0.06075929438763739,-0.21244937348529408
2024-01-01 00:00:03.340,-0.21843529636702844,-0.033039336580827736,0.7496524733508987,0.22098796429218762,-0.5034523182294611,-0.21976965658544392
2024-01-01 00:00:03.350,-0.4573324097624268,-0.22333301018635013,1.8000502539882859,-0.10732752069963071,-0.18360485466078671,-0.20636072021604498
2024-01-01 00:00:03.360,-0.19591775356542793,0.16027415668224357,2.9476556375581775,0.16239658982205185,0.6337077850388204,0.44108616381467497
2024-01-01 00:00:03.370,0.027032875570043306,-0.1474767349777321,3.854311735779086,0.16518022439349686,0.42856488487809885,-0.36687194044718907
2024-01-01 00:00:03.380,0.07656929085551202,0.2039717151362743,4.825265351728211,-0.9656175208932587,0.2363478523214657,-0.12634310467573587
2024-01-01 00:00:03.390,-0.22257725011814394,-0.333721500590557,6.01877403793217,0.41915047645519193,0.06352165688383817,-0.15191013142020732
2024-01-01 00:00:03.400,0.40351308559205856,0.5150817447834816,6.599780447608098,0.3610459771622125,0.4964240269447103,-0.3082207372427926
2024-01-01 00:00:03.410,0.09182619697391686,-0.22948074451648176,7.382284268855049,0.17387543644891632,-0.12368114422375996,-0.5532962197870613
2024-01-01 00:00:03.420,-0.027034441167599715,0.5318971528479924,8.078181088848392,-0.05031503455918382,-0.3411948551897808,-0.6688784291281383
2024-01-01 00:00:03.430,-0.30369477537750467,-0.1079087815851127,8.83431317873752,-0.3691900605902526,-0.09748477147970587,0.23720679445491147
2024-01-01 00:00:03.440,0.31770938079027816,-0.1267370148294693,9.001397761426974,0.05015130763682157,0.196736019912045,0.0999786443241909
2024-01-01 00:00:03.450,-0.035974065304885144,0.3894697699239246,9.624292973754285,-0.7971889140113708,0.9391579776823836,-0.057114107531897086
2024-01-01 00:00:03.460,-0.38512804962720265,-0.25753516751657723,9.954580519809037,-0.2292232237515007,0.28993373547790474,0.1579115667882868
2024-01-01 00:00:03.470,0.04278795489671077,0.0653548009302053,10.042118278472781,-0.7915859148602568,-0.5946089926323818,0.3535281833420582
2024-01-01 00:00:03.480,-0.3041139019010571,0.06759465189542531,9.719161634949224,0.790401302572386,-0.7929371926277727,0.7644796715018405
2024-01-01 00:00:03.490,0.07791356936679639,-0.30984979403532864,9.371432314145247,0.5291210598413248,0.6830261909897138,-0.37939372659984
2024-01-01 00:00:03.500,0.09964002298960586,-0.3182510421271551,9.274074881709343,0.03225501504453606,-0.8879453077421159,-0.691348236689252
2024-01-01 00:00:03.510,-0.17904851673137748,0.4807248380553533,8.932282270163169,-0.5967466440167865,-0.2694788975084709,-0.006988113347382053
2024-01-01 00:00:03.520,0.3578657924492454,0.447789872910981,8.692748233602854,-0.009066844719257379,0.20238838876182189,0.1865835740519194
2024-01-01 00:00:03.530,-0.34755183485266383,0.783173597048762,7.988447525962053,-1.00801603924134,0.10238030901345248,0.7017733755370195
2024-01-01 00:00:03.540,0.35361641421464796,0.1438982243671627,7.10888544945028,0.20006643128438065,0.08162763698908579,0.18525508103217259
2024-01-01 00:00:03.550,0.0010070956791469376,0.05390687148668994,6.169681084679084,-0.45937275612978024,0.22461326681436247,0.006675114759498258
2024-01-01 00:00:03.560,0.011611640039284988,-0.5086636202204903,5.12546292167468,0.451030561802161,-0.13372895862570494,-0.2938919239074848
2024-01-01 00:00:03.570,0.16018365625977646,-0.036221125220623984,4.613699119277127,-1.2668411413042178,0.18171254692026698,-0.06268344466803018
2024-01-01 00:00:03.580,-0.37575434642024813,0.010641512109391262,3.386279022624101,0.5958602990254095,-0.6168514757856438,0.2774401955165646
2024-01-01 00:00:03.590,0.22575388531712381,-0.5331080667748814,2.137990700438465,-0.40575293646195,0.26954209613911523,0.7390688466173492
2024-01-01 00:00:03.600,-0.17731212460516346,-0.008377812937980877,1.0000631846834533,-0.3431364081237121,-0.012150697727309267,-0.48281267888913465
2024-01-01 00:00:03.610,-0.4628022078489898,-0.1709290369111012,0.1018400663612163,0.5211383201878939,-1.1867108297993216,0.5677432580534311
2024-01-01 00:00:03.620,0.6099976802978092,0.09831269539716185,1.1360573762934278,0.6226316472076654,-0.12944735232147073,-0.8891390948257192
2024-01-01 00:00:03.630,0.0068311743076384076,-0.19382498846039445,2.2470859518462696,0.17528131131680783,0.4064652897628732,-0.03816957398695712
2024-01-01 00:00:03.640,-0.528615488505897,-0.0736101608712426,2.986889211033869,-0.024672329953058583,1.1529468217938013,0.21944812839284564
2024-01-01 00:00:03.650,-0.06194316548662052,-0.12945331458578466,4.132215223702089,-0.7257147131976567,0.10281900709452935,0.06772437952705156
2024-01-01 00:00:03.660,0.12343539904423212,0.14101613450700978,5.246633311636441,0.02523597719506428,0.2853843643110109,-0.08080802789520006
2024-01-01 00:00:03.670,0.23051968011070129,-0.12020812912301261,5.992963565641393,-0.911876668069733,0.20896643844417145,0.07599407833353497
2024-01-01 00:00:03.680,0.11983192581239467,-0.19042995717864483,6.719309891414334,-0.2103986587876726,-0.5398786027840442,0.34328711302248643
2024-01-01 00:00:03.690,0.6394112230978967,0.21441904020660874,7.654647058997524,-0.6703448525453904,0.2954534788844522,-0.17937655219924337
2024-01-01 00:00:03.700,-0.1920936411442952,0.17242150245975865,8.261286180603513,0.6644894594018091,1.5392173766012067,-0.4976275733722409
2024-01-01 00:00:03.710,-0.3876219365962774,0.06255914281812286,8.80630958332814,-0.3594395501926757,0.055690435824921954,-0.2178762444410587
2024-01-01 00:00:03.720,-0.12171741459257344,-0.042888179548148005,9.20096892195885,-0.1967667737184161,-0.7822275995794991,-0.47132987640842744
2024-01-01 00:00:03.730,-0.4888389127767343,0.35535056601324183,9.746725536340087,-0.3822050960547795,-1.1217349625021826,-0.17624544131684872
2024-01-01 00:00:03.740,-0.2437107871413478,0.15142944522038906,9.646195179904678,0.4429031973991069,-0.37519920126829,0.3378217908705428
2024-01-01 00:00:03.750,0.645662205507275,-0.22730685600971456,9.900011140393323,-0.648366585886564,-0.2910116180413566,0.09943057554714527
2024-01-01 00:00:03.760,-0.4459826878225251,-0.16189022613672935,9.853845863181933,0.7396316406624611,1.0376661988718976,0.32640521465535804
2024-01-01 00:00:03.770,0.19303962602097632,0.15685828802674995,9.455152819387667,-0.9081746792667887,0.38643209167055054,0.6674822436212052
2024-01-01 00:00:03.780,-0.383459405864823,0.06269724921107554,9.2951255331539,-0.6316011853976933,-0.2493965496621673,0.024815927145167286
2024-01-01 00:00:03.790,-0.046386191399459716,0.07412539900860747,8.70910423655943,-0.25982986926707097,-0.6833554571742277,-0.08728468591441883
2024-01-01 00:00:03.800,-0.18126200622055944,-0.2643634361908307,8.240069775170642,-0.4502205905492797,0.039106659793227826,-0.42004922694374636
2024-01-01 00:00:03.810,-0.7512754519900383,0.07435085287356502,7.449100283163165,-0.004978589720227223,0.22054491289321987,-0.11721612725994655
2024-01-01 00:00:03.820,-0.19567089422145045,0.1652281299844622,6.857437629271027,-0.5463151369630441,-0.8250188776679314,-0.27250666203581403
2024-01-01 00:00:03.830,0.20023047896962468,0.2192818845887983,6.1612938820906304,-0.8463882848716596,-0.11432248632610285,-0.16156723374884918
2024-01-01 00:00:03.840,-0.2081368623678932,-0.45731549153599677,5.035944036019785,-0.44309497080358085,0.3398549117955975,0.22234110072550844
2024-01-01 00:00:03.850,0.43148692224950896,-0.12986410922721373,4.226302460786649,0.4162257132465181,-1.0947058801456535,-0.19365948274243305
2024-01-01 00:00:03.860,-0.13105838418643465,0.09032321291864677,3.2278283839998316,-0.16154064551175806,0.3027980201120559,-0.12269019701920297
2024-01-01 00:00:03.870,0.04219292255338549,-0.1717361235030444,2.1611137692609073,1.4765477887345304,0.5404144507367694,-0.168538174713544
2024-01-01 00:00:03.880,0.0268231317393571,-0.2432334057008508,0.8991747754452588,-0.36659542379257143,-0.022429676536249547,-0.540062986148882
2024-01-01 00:00:03.890,-0.4903201487868024,-0.2243698847118237,0.06710355570865606,-0.48733705123624205,0.5888956904336271,0.39396471383311754
2024-01-01 00:00:03.900,-0.20717640538921103,0.10215370035406567,1.2453259563857164,-1.1388494509310356,1.0158146547371758,0.2060564099490416
2024-01-01 00:00:03.910,-0.3503274733196931,0.07209999681593615,2.303743175911059,-0.7312839667646561,-0.7379462111748871,-0.30331562934598794
2024-01-01 00:00:03.920,-0.009649309265405063,-0.16803005069786922,3.4336973202985996,-0.7014983369852498,-0.03880970979672542,-0.10309292333408163
2024-01-01 00:00:03.930,0.6993305377167398,0.36725392273968577,4.535697412631336,-0.11036645656316102,-0.7405898737457887,0.1521637385714687
2024-01-01 00:00:03.940,0.10573757255480377,-0.14733818014322286,5.50149824026743,0.803546687746452,-0.1375433268477041,0.4412127891100014
2024-01-01 00:00:03.950,0.02937447289344184,0.28641721682375054,6.433221660494165,-0.13213695192572975,-0.3137810462156396,-0.19764861709906298
2024-01-01 00:00:03.960,0.04122264118346877,0.11518295209007565,7.055949453900808,-1.1079505633862954,-0.7673477379858409,0.20524402172672068
2024-01-01 00:00:03.970,0.29950533565335546,0.22267414342616018,7.835301145237289,0.18017442347221435,0.5076402360441812,-0.03663839829807003
2024-01-01 00:00:03.980,-0.292124428284452,0.1527189286562709,8.490401175197851,0.3844443208462469,-0.46257350882005205,-0.16168604933915173
2024-01-01 00:00:03.990,0.1188923907964902,-0.5629727709462832,8.97936036654352,-0.4532679741976691,0.7586309983926288,0.026633673425842417
2024-01-01 00:00:04.000,0.3755586030001034,0.12493754713582578,9.177624869622548,0.07356751416116242,-0.1484987458837959,-0.2277876935686082
2024-01-01 00:00:04.010,-0.38894036578925356,0.10275303245634079,9.608696804042136,0.9423731257509963,-0.5431672264192059,-0.29021873390021596
2024-01-01 00:00:04.020,0.5033263154599755,-0.11976166414210573,9.899272666471283,0.6424529597118119,0.5202272999953433,-0.09130540980938966
2024-01-01 00:00:04.030,-0.08708695992085587,0.0811794345268612,9.904227939283006,-0.2826384798880133,-1.139567085292743,-0.5558553348117742
2024-01-01 00:00:04.040,0.006888116592516189,-0.0009543942990673029,9.504628745218659,-0.5836891408438369,0.4055188938727681,-0.04362137274850089
2024-01-01 00:00:04.050,-0.2574336192981033,-0.5501081939521589,9.769757367874838,0.6488430120443637,0.5552360596365695,-0.3855522361357443
2024-01-01 00:00:04.060,0.07199592912709184,0.10911722025725552,9.217993604025251,-0.2667473020439861,-1.0263154245997743,-0.14201621067307485
2024-01-01 00:00:04.070,-0.39034679952374024,0.03549030346283022,8.770198844473512,1.5043868139335907,-0.17753186697144774,-0.28016347971434447
2024-01-01 00:00:04.080,0.011110567685365447,0.39370563906308903,8.089751740595904,-0.29150409427768653,-0.5081206784560741,-0.05134746464473467
2024-01-01 00:00:04.090,-0.1232367456033861,-0.09552392299425667,7.617504655151345,0.10496666887589837,0.5429064533447505,-0.09385924149034044
2024-01-01 00:00:04.100,0.32959718972507274,0.01741426405226445,6.52532885733832,-0.5702553096244036,-1.272169489019638,0.1024727109485989
2024-01-01 00:00:04.110,-0.8380303178490397,-0.5478518681339108,5.632794884022783,-1.0053661940778953,0.5825006909959609,-0.20738762713522652
2024-01-01 00:00:04.120,0.30927683541210305,0.4674912582760375,5.043986817272379,-0.15575405225167943,-0.10872963368453673,0.29250813557362976
2024-01-01 00:00:04.130,-0.10977273681159888,0.5006661457634799,3.9060096789435907,-0.1745289180210191,1.3706563931408149,-0.7106008031353976
2024-01-01 00:00:04.140,-0.8624318370860747,-0.17168230810803195,2.5740609025270422,1.6814809648092148,-0.6708764502130641,-0.0017075656881037184
2024-01-01 00:00:04.150,-0.25122727770890674,0.16045160722859744,1.92284275633537,-0.20313173832460085,0.47373121299546406,0.26570462286257895
2024-01-01 00:00:04.160,-0.45382595529202896,-0.04412439648464974,0.845376821367577,0.7122560329997033,0.5275946037319527,0.2967570599696677
2024-01-01 00:00:04.170,-0.48346163531829467,-0.34648028731924385,0.29053988508398765,0.7278405182944715,-0.837835346831897,-0.083660841591764
2024-01-01 00:00:04.180,0.23039093070509056,0.4540452631499992,1.4515647218819447,0.18357187905567923,0.03423791554542047,0.08482963473612476
2024-01-01 00:00:04.190,-0.03936435941721323,0.069200713970136,2.54405607262956,-0.8025902661683963,-0.14244270851453897,-0.13572987345373397
2024-01-01 00:00:04.200,0.019234628543563153,-0.3574165160408206,3.4718383863409326,0.58480677889728,-0.16839143553481717,0.09671069751714984
2024-01-01 00:00:04.210,-0.012902529155835122,-0.4153514231577582,4.745722896981063,-1.1778571290244517,0.2563089962468381,0.39404189929712297
2024-01-01 00:00:04.220,0.4001596258191228,0.3052555448399649,5.365657051755954,0.8228153589222441,-0.17856863035248083,0.18025496900672555
2024-01-01 00:00:04.230,0.377860267298925,0.15215940780753395,6.449236251062263,-0.6949852422023343,0.1601836026264126,-0.016367457901743043
2024-01-01 00:00:04.240,0.021648325265167367,-0.54961610837666,7.167877968397944,0.44589788991582113,-0.519567772904088,-0.42880634671479784
2024-01-01 00:00:04.250,-0.2275924352243178,0.23100740249417126,7.949886686923965,-0.4801242829329903,0.49132030024206363,0.6450254011126764
2024-01-01 00:00:04.260,0.30885438169549034,0.2000081120788144,8.511290029148084,0.2341235764978266,0.01642698362353365,-0.10310775696067939
2024-01-01 00:00:04.270,0.4111297554889878,-0.16680670169575645,8.903157178564186,-0.7848177115268742,0.012041140931433577,-0.05091428130680444
2024-01-01 00:00:04.280,-0.5816832755359905,0.0933867471219887,9.441024642968182,0.5364465656917938,-0.39132806757816124,-0.11924736155439958
2024-01-01 00:00:04.290,-0.0956884755689276,-0.43497600293188243,9.43118518969595,0.5838019855879022,-0.08160835314620862,0.09825802562922982
2024-01-01 00:00:04.300,8.668924842915275e-05,-0.037988574350439896,9.522901391304163,0.29700403425170485,0.030462874706937797,0.01795910670702065
2024-01-01 00:00:04.310,-0.08175158811192552,-0.09480421357193033,9.671831891759464,0.3618384344611215,1.0842706898567398,-0.0025946338918739157
2024-01-01 00:00:04.320,0.13910427094395852,0.32130361365168175,9.602049999019478,-0.5953223792244505,-1.565237022090256,-0.2456744481109042
2024-01-01 00:00:04.330,-0.36987541031887594,-0.34268722231774773,9.500276694823349,-0.11167674728026002,0.26032923135155545,-0.1129261960226634
2024-01-01 00:00:04.340,-0.4372120798237687,-0.27942307247222165,9.131282963914865,-0.1960477917366424,-0.10998352629541364,-0.30428603953772854
2024-01-01 00:00:04.350,-0.18780304620676683,-0.10300557628201565,8.567220022436063,0.4548951939001068,-0.44684247258626775,0.38642568176237974
2024-01-01 00:00:04.360,-0.017122373015391757,0.5274486468664229,8.202811599575009,-1.162833094222008,0.18724713428718698,0.17582660831079613
2024-01-01 00:00:04.370,-0.4627043075076023,-0.2159814834476561,7.4377709645728105,-0.8549353667378699,-0.2721891839382964,-0.2983177030659535
2024-01-01 00:00:04.380,0.09609362968582975,-0.15028712603292696,6.524156611704457,-0.08185896730600284,-1.3815023989320463,-0.3085952434955776
2024-01-01 00:00:04.390,-0.1379326509872309,-0.08277768956639044,5.947912899892645,0.19244857787502126,-0.8476314429748315,-0.2436689146561264
2024-01-01 00:00:04.400,-0.31599079941390085,-0.07140011533686522,4.845490599163486,-0.3903817229625746,-0.535027486805892,-0.5017793163801008
2024-01-01 00:00:04.410,-0.1358521528732438,-0.19124826011757126,3.602223800058385,-0.5901051361595976,0.6477472157688325,-0.21711867032585713
2024-01-01 00:00:04.420,0.18020346020668568,0.2765134834555111,2.7001267427746694,0.8429197722943602,0.14327474592476974,0.2628204413608448
2024-01-01 00:00:04.430,0.23135774906936943,-0.40199722338120686,1.7986057677214644,-0.17731336171536302,0.20560210211059163,0.07743044674791381
2024-01-01 00:00:04.440,-0.0725724787382962,0.10291515317310349,0.35122020577331503,0.3610110594581342,-0.1322611747391629,-0.02979124750035732
2024-01-01 00:00:04.450,0.15936930058358068,-0.4296204185361177,0.577803827474898,-0.40488787653037617,-0.19831273659875337,0.24758780793264804
2024-01-01 00:00:04.460,0.31953700337389424,-0.08384860855244142,1.7661697572062367,-0.7284590814432824,-0.7305138654305979,0.2685427619596965
2024-01-01 00:00:04.470,0.23198764439242137,-0.06370749619994347,2.819319892659383,-0.6400740116801885,0.785274138504142,0.21169086964325357
2024-01-01 00:00:04.480,-0.51482986067843,0.11230572790017795,4.079472087588171,-0.2326848600061173,-0.6394138421015103,-0.22277068594033358
2024-01-01 00:00:04.490,-0.24140213325767299,0.2359933841860959,5.083540881670626,-0.3769303876797244,0.5181768974078403,-0.26128473304167915
2024-01-01 00:00:04.500,0.4756726795937127,-0.5049475695492949,5.850147497818844,-0.7044620238328703,0.11175661516535003,0.16221153966429713
2024-01-01 00:00:04.510,-0.4698595317733877,-0.08943209592029565,6.774371270767111,0.48405383028935245,-1.088197257933093,-0.4830820163662546
2024-01-01 00:00:04.520,-0.18870800460055134,-0.38611775524822994,7.467109318064116,0.255473832538322,-0.43887682395848887,-0.11610353718938919
2024-01-01 00:00:04.530,0.13646088681675506,0.3444479907769989,8.100500278238433,-0.8010685396546324,0.5385761980862088,0.383264902644956
2024-01-01 00:00:04.540,-0.34252158189086285,0.3641326860662612,8.733377612053957,-0.4280388541442766,-0.6519369472944235,0.11991724186576036
2024-01-01 00:00:04.550,0.13556707818362043,-0.04917849790222476,9.071010671890866,-0.08636999664276153,0.14881028662205856,-0.3766057229394948
2024-01-01 00:00:04.560,-0.07468192107814077,0.166979655779222,9.546734724237234,-1.114923616226988,0.3458514551501351,0.06727875782982294
2024-01-01 00:00:04.570,0.26526689443074825,-0.26239683631378885,9.760332924211014,-0.13694668300871196,0.3053044209550893,0.5526153619388491
2024-01-01 00:00:04.580,0.03675534735871159,0.9004926462022911,9.81099423188694,-0.10450905229823106,-0.0902562163330128,0.2772397304198502
2024-01-01 00:00:04.590,-0.42539197834461695,-0.042473925883339786,9.448902859329566,-0.31551143666224385,0.3536665003942769,0.1382432550244415
2024-01-01 00:00:04.600,-0.37852105651946066,-0.1601006966146131,9.52415287774011,0.8397587132804202,0.15567914182101258,0.20083130118158707
2024-01-01 00:00:04.610,-0.3658327899697568,-0.36681836092838893,9.373765346120983,0.3302465205632783,1.1280036692020048,-0.19622381184813972
2024-01-01 00:00:04.620,-0.16042187629051038,0.05323202695423108,8.926577065942357,-0.28920448385272424,0.5628584068525079,0.3717354400143841
2024-01-01 00:00:04.630,0.3487436681852644,-0.20285595120453787,8.494070916554545,0.3239175159351847,0.3640450200443238,-0.03549699725520465
2024-01-01 00:00:04.640,0.22972796496383502,-0.4233865776765223,7.814269181780293,-0.47280655332299754,0.17898593078095856,-0.14718171049950698
2024-01-01 00:00:04.650,-0.23852738062039786,-0.5098737144175869,6.9724581661143965,0.15345462485248493,1.3266846410945776,-0.1420154205817492
2024-01-01 00:00:04.660,-0.3887061387283409,-0.019126156805623917,6.521220384122707,0.4746651729986874,0.4801872299637844,-0.0957326382245327
2024-01-01 00:00:04.670,0.024337296590313022,0.17259047150333295,5.277081081007449,-0.6912184955713878,-0.46576444849806364,-0.14869056098596517
2024-01-01 00:00:04.680,-0.4730351447875074,0.23960401163430303,4.543049181877581,-0.0808418991847193,0.3527255049582951,-0.15347142654574183
2024-01-01 00:00:04.690,-0.09016667438091036,0.4928874206188688,3.5035805347735467,0.7965184555284869,0.22597477554955742,0.5133904526069132
2024-01-01 00:00:04.700,-0.22611144236822656,0.31472093288617087,2.478759529445842,-0.02542407966637588,0.616132679407305,-0.189775614275362
2024-01-01 00:00:04.710,0.10703419476605741,0.24668753023846832,1.6774394422364314,-0.21742754594831934,0.3386791013057494,-0.1330977875923446
2024-01-01 00:00:04.720,-0.12267485522978243,0.0470085346803206,0.27265405984694635,0.025486145258099415,-0.39805144823997435,-0.3643952066591455
2024-01-01 00:00:04.730,-0.14108266131068967,0.24553820914025273,1.0208822748720026,-0.2266805375079264,-0.7041879756462387,-0.310361891495944
2024-01-01 00:00:04.740,-0.25979704840278134,0.7069270485041309,1.88675024252803,-0.8169280576347632,0.8679771951446338,-0.2112146731831308
2024-01-01 00:00:04.750,-0.3299287846533452,-0.5321248188614298,2.8275580274811674,-0.7115577091971638,-0.6633102992781964,-0.6252997638243283
2024-01-01 00:00:04.760,-0.002084118625410811,-0.13542882698810738,4.1094870422376975,-0.6423926024905138,0.16683608744835757,0.1651694385547492
2024-01-01 00:00:04.770,0.03287899060298912,-0.34209751374801645,5.169051572206321,0.13638975657697688,0.007096754981466779,-0.6427748301869819
2024-01-01 00:00:04.780,0.4247841405012462,-0.017028435403078194,5.780528444669704,0.1026628957816143,0.08648833048341988,0.48801099341323456
2024-01-01 00:00:04.790,0.06310142378500586,0.26999586079690974,6.713919326561747,-0.2242280585891271,-0.5839500071152242,0.3942620857995857
2024-01-01 00:00:04.800,0.20362825724598266,0.11447707403529915,7.556516205142102,0.48649977803215644,-0.5254927118758675,0.47527346241687624
2024-01-01 00:00:04.810,-0.12887860582418473,0.1692459223820394,8.233224549037262,0.01753465936714634,0.07914054070259736,-0.018666292345011867
2024-01-01 00:00:04.820,-0.21354184291997358,0.003394464614315188,8.569512158288008,-0.6012018459838273,-0.6246053835173014,-0.18791921450646487
2024-01-01 00:00:04.830,-0.2920115578449641,-0.24768386032725054,9.2508996985603,-0.11932336734224554,-0.5520229353202548,0.008304060120212061
2024-01-01 00:00:04.840,0.32274623336024044,-0.22132747590017796,9.463719893578332,-0.5037629535939138,0.7029392259294106,-0.30420787587263964
2024-01-01 00:00:04.850,-0.2040732754116328,-0.3186578846118061,9.754080196136956,0.6701940034583859,0.22118101573806898,0.46292992153699164
2024-01-01 00:00:04.860,-0.29300315351890066,0.05916061971508904,9.72054216598586,-0.3009194294821845,-0.21437217501649292,-0.4487817818928156
2024-01-01 00:00:04.870,-0.3972867447743363,-0.044307840879473856,9.846307723302864,0.16102588851526317,-0.5434086592992027,0.8556057475115832
2024-01-01 00:00:04.880,-0.10408523161527312,-0.14014560162692982,9.58215808309411,0.8812514550773152,-0.3606955062834458,-0.2172678746364598
2024-01-01 00:00:04.890,-0.19805397308908573,0.04171918679106124,9.26421007810742,-0.32856706633612137,0.8292188839186545,0.006582820462593628
2024-01-01 00:00:04.900,0.0294347417066334,-0.48068170065004456,8.65131781753559,0.7469974336004834,-0.39027716122138156,0.6376789177930395
2024-01-01 00:00:04.910,0.4199109044464969,-0.15934532122894726,8.366899188520813,-0.16897784940471075,-0.8066790161073152,0.11614774096400056
2024-01-01 00:00:04.920,0.1550748808744942,0.14040968718788882,7.836151168703417,0.6517952424620942,0.16700096453830507,-0.04859985313222369
2024-01-01 00:00:04.930,-0.2786220136946503,-0.3209864306752374,7.148325265179165,0.20976963652875252,0.3053421698647084,0.042134055665589344
2024-01-01 00:00:04.940,0.01913912590495374,-0.12715543376387586,5.952093068104594,0.376270612327385,0.7218671168296533,-0.24280394305010752
2024-01-01 00:00:04.950,0.06480898580913172,0.05942063795018311,5.466076597408952,0.5238496293979413,-0.9594550368604627,-0.6613433352638884
2024-01-01 00:00:04.960,0.20148906404986447,-0.040900309006660134,4.03898852632595,-0.7570324291426975,0.007930045750964761,-0.6622024317025497
2024-01-01 00:00:04.970,-0.2798522164765316,0.27749377035771866,3.473591154435154,0.47554944404950117,0.6609765479503297,-0.422936765672671
2024-01-01 00:00:04.980,-0.08347772281599639,-0.18670643745541834,2.037000151807833,-0.28849184000784,0.2409939953475289,0.12521131077566264
2024-01-01 00:00:04.990,-0.08103665766151844,-0.027001491050316094,1.091529848817577,0.4189382119524088,-0.2639940420201953,-0.30538031999260734
2024-01-01 00:00:05.000,-0.015061536315439661,-0.41646313305408167,-0.09807894978611019,-0.2692345589398668,-0.06698970323889962,-0.6418712374166358
2024-01-01 00:00:05.010,0.19163888608864402,0.07964272025251877,1.0128847106506236,0.415583658981368,0.4898840449335234,0.20158431467116528
2024-01-01 00:00:05.020,-0.6076633811020391,-0.3234012191500004,1.976044860962509,-0.19738875453899332,-0.6777067134925224,-0.23477793477384368
2024-01-01 00:00:05.030,-0.007870351359742454,0.12118050655365382,3.0340223284236987,-0.12534198713841074,-0.05714127674943564,0.20516775967769607
2024-01-01 00:00:05.040,0.22820711994769222,0.010742558580283057,4.344868695388806,-0.6620779834121218,0.405782206976394,-0.1565159796750818
2024-01-01 00:00:05.050,-0.08240335798934792,-0.24250573135579734,4.912074869047629,0.154166831172406,0.5358368014495792,-0.2510407351903809
2024-01-01 00:00:05.060,-0.43267396062040586,0.34038510159583363,6.054946886657723,-0.22764338918855467,-0.22445422181807584,-0.19065088059114393
2024-01-01 00:00:05.070,0.05058267280425939,-1.9734441430527183e-05,7.026467471977426,-0.23901283249695637,-0.2063294435899077,0.6197127773739832
2024-01-01 00:00:05.080,0.696018226417837,0.14804133959329463,7.567623461471411,0.03131469535113415,0.5015493622383271,0.06312273463853155
2024-01-01 00:00:05.090,-0.3182405533856598,-0.17781189964519797,8.216153864640034,0.42650633855018266,-0.5466641127069994,-0.030063669282437613
2024-01-01 00:00:05.100,-0.32017046316139913,-0.09258299922689094,8.971572948128602,0.2872079961278456,-0.835578043995877,-0.14922820012842636
2024-01-01 00:00:05.110,-0.6846238004360694,0.232170479664368,9.205536096069094,0.5663263498832959,-0.08314858950685114,0.5206953244740516
2024-01-01 00:00:05.120,-0.10195223341616888,0.13621827818568227,9.38004707666867,0.06026278247357362,0.2304617354496584,-0.12262495416613967
2024-01-01 00:00:05.130,0.20311384679880265,-0.14368876139522174,9.375509873726092,-0.062170691475930705,-0.7046449806354952,-0.12693877540626117
2024-01-01 00:00:05.140,-0.24117958306909243,0.21815595996347373,9.95940094515691,0.05913050006097323,0.2597436587895537,-0.08227544899163355
2024-01-01 00:00:05.150,0.17805622880245095,-0.10840244304907963,9.690023433707859,0.3953885424336446,-0.5296793293060784,-0.07732028033459616
2024-01-01 00:00:05.160,0.03287934919411104,0.37635692127825315,9.36525713149845,-0.5608989809101403,-1.0341470574531146,-0.30850187657117817
2024-01-01 00:00:05.170,0.37812354166359824,-0.068711642639272,9.273949452955323,0.6181849382055369,-0.9808739202423481,-0.5422697596007383
2024-01-01 00:00:05.180,0.09355640758778518,-0.05377244603591903,8.646180217661357,-0.992903017041009,-0.6871917112617741,0.36702189399892354
2024-01-01 00:00:05.190,0.7104011577334307,-0.5579036272809417,8.159158184471487,-0.2328567115203853,-0.09516384669607106,-0.2729642226385946
2024-01-01 00:00:05.200,-0.33758357570183406,0.15287887913308862,7.310993601689222,-0.4374911810245758,0.4943256748183206,0.07945458056236042
2024-01-01 00:00:05.210,-0.0502029319514411,0.2053237858814927,6.772175880540556,-0.061203963130236724,0.2058353656221323,-0.08233022876635758
2024-01-01 00:00:05.220,0.0910313727813387,0.024910434298443408,5.821494979185235,0.46062118033674637,-0.3964603173856562,-0.1493674812922219
2024-01-01 00:00:05.230,0.11959469732635666,-0.19325009610786628,5.188064700348197,-0.27436078066033154,1.070663188958538,0.11645978170582592
2024-01-01 00:00:05.240,0.3018525589065628,0.5035662492407498,4.1227946827867274,0.40046925780724696,-1.1628603384908167,-0.3146562133897271
2024-01-01 00:00:05.250,-0.3179773375425557,0.02893292240422523,3.024372947145693,-1.0230321014026456,0.13171863772797043,-0.544893046968465
2024-01-01 00:00:05.260,-0.4412512126471953,-0.1687419452260395,1.811007690311168,-0.07191217714546692,-0.8698999746115793,-0.023831586063236102
2024-01-01 00:00:05.270,-0.22757373341864104,-0.39157416520637317,0.8363890095202183,-1.1685663760197529,-0.021902074322689417,0.3459804286440719
2024-01-01 00:00:05.280,0.2756038694750791,0.20367936754322297,0.4103715438870402,-0.5605596453851922,-0.3806799334200856,-0.1912057166513203
2024-01-01 00:00:05.290,0.04026807404981325,-0.1619515861628595,1.2082020611610607,-0.44902002236515975,1.0420882176508144,0.3660199349800875
2024-01-01 00:00:05.300,-0.1290519474948888,0.05674011345477074,2.5562868905595852,0.3672574331552099,-0.29149937921820257,0.022691287289206954
2024-01-01 00:00:05.310,-0.10065484477809207,0.6054943462080387,3.5992584816758,-1.096344151629883,-0.1935557392291974,-0.7319134598196184
2024-01-01 00:00:05.320,0.31988360176640546,-0.2708143236333189,4.41571147827206,-0.4615656924146206,-0.12670984827088377,-0.2778157017130011
2024-01-01 00:00:05.330,0.4348424654427989,-0.3603356725825535,5.741830104757324,0.18995782113880083,-0.3050115717540769,0.34493920865038513
2024-01-01 00:00:05.340,0.440906805933548,-0.164481119091326,6.554690805900289,0.11278856553896759,-0.17800336311797899,-0.7371526821222991
2024-01-01 00:00:05.350,0.19325815459529946,-0.1409301077954035,7.104952717631018,-0.6763507810086806,-0.8177392114742265,-0.08748619698328174
2024-01-01 00:00:05.360,0.37028476532637195,0.3772793658223013,7.983897546969673,0.4279890938734475,0.7356659681641904,0.14987057519789376
2024-01-01 00:00:05.370,-0.1571928699925662,0.027082135762823662,8.54653574729042,-0.540308653793894,0.2784639655336787,0.40864596062890157
2024-01-01 00:00:05.380,-0.4575677416035725,0.10433567881925213,8.841112469357206,0.31557223697072806,-0.2842423831072373,-0.4566485580672311
2024-01-01 00:00:05.390,-0.4355279736873667,-0.03570406425165059,9.446119870526937,-0.3180802558694911,0.36388713305640863,0.049839662460227106
2024-01-01 00:00:05.400,-0.09098998029797767,0.08479408273702596,9.430889094116507,0.04783530958594223,-0.3166101125726598,-0.19378154026644825
2024-01-01 00:00:05.410,0.16966060334953775,-0.1840013063719978,9.851102853516636,0.38796009476080207,0.4690713704783985,-0.04117454840450767
2024-01-01 00:00:05.420,0.07646330257309218,0.29093679994415433,9.746790873977297,0.22512765787958974,1.522214832573684,-0.10533528076951969
2024-01-01 00:00:05.430,-0.5169734502809539,-0.23812151971549467,10.02274104981765,0.11781687986016821,1.0855401263352658,-0.3888225418223643
2024-01-01 00:00:05.440,-0.12512710284052334,-0.019454643646312254,9.583393681998725,-0.20471266194761858,-1.5545001962923914,0.26479274680143433
2024-01-01 00:00:05.450,0.4844261035082191,0.5104359675984697,9.115220373597438,-1.2740565617522501,-0.23283150331609756,-0.237475225402868
2024-01-01 00:00:05.460,-0.2538932949487386,0.06744014384930759,8.905289326294037,0.03242591567348206,1.1421299701342544,0.3841255633692687
2024-01-01 00:00:05.470,-0.34492070594688984,-0.18594910277412147,8.312007051724501,0.912986690973471,-0.3200976251478959,-0.2147184083898643
2024-01-01 00:00:05.480,0.23759285296381094,-0.20345018109681434,7.2771270327975675,-0.1633574927621822,-0.0030049561164862083,0.5311337867219333
2024-01-01 00:00:05.490,-0.5474440786341688,-0.17336635128766245,6.978574974636734,-0.1471601399076013,-0.45292685382505504,-0.42716863281496514
2024-01-01 00:00:05.500,0.004744044276450691,-0.12599437718402176,5.792339735035263,0.18230254683904595,-0.2537264639114462,0.3594385410438887
2024-01-01 00:00:05.510,0.03617635302461752,-0.3797070178106626,4.684431297663982,-0.5819621217664914,-0.2292913785899757,0.21422509345482774
2024-01-01 00:00:05.520,0.01642214662775249,0.03266129958853412,3.6259622919006964,-0.7448222726455068,0.6956463630706198,-0.03530333625211203
2024-01-01 00:00:05.530,0.35095953232044547,0.18989988860799586,2.7289699470363917,-0.0006263641984968557,-0.09789859626710479,-0.3849258156219441
2024-01-01 00:00:05.540,-0.011619880876714886,-0.31634448189091974,1.794706442571571,0.2725506237894367,0.05143209189527828,-0.39185257918929406
2024-01-01 00:00:05.550,0.5416842719033236,0.8717039505850165,0.7790829381896409,0.17942327683748355,0.03028420324095177,0.38741244487836224
2024-01-01 00:00:05.560,0.26377729079054746,0.04284698438623642,0.10352360499415975,-0.6254231983069859,0.6816836409873198,-0.26805217956319843
2024-01-01 00:00:05.570,0.44440094651571277,0.17324227523991365,1.591436299230807,-0.3009152792756813,0.4363697033342381,-0.3964689077811328
2024-01-01 00:00:05.580,-0.38572497278562573,-0.4282399857171632,2.7747578651199643,0.6464971591956544,0.41548623086511116,0.2870005903704975
2024-01-01 00:00:05.590,0.40916069843462277,0.15658795825426944,3.68394026227706,-0.24072894286851548,0.5239644169641715,-0.7126741426569724
2024-01-01 00:00:05.600,0.16811966456781896,0.5310911604191042,4.836364594353345,0.1970892613981623,0.36160384421524144,-0.6039759052528985
2024-01-01 00:00:05.610,0.34178427880520174,0.7519998387013489,5.801382051023127,0.06860680817829437,-0.9241642232394854,0.2795889451902075
2024-01-01 00:00:05.620,-0.2529133376914659,0.7258409519724418,6.323028753905671,0.16845110573822197,0.3288273622855275,0.22691222755977744
2024-01-01 00:00:05.630,-0.21787465972975167,0.49200232377025804,7.285421613893104,0.43187444651157764,-0.5996590394948373,-0.15405097166519768
2024-01-01 00:00:05.640,-0.2050338341585777,-0.6279981068124296,7.969160413492679,0.2704484333422185,0.12101509176712544,0.49722849946791764
2024-01-01 00:00:05.650,0.24226180698573546,0.14628348017142614,8.628364860947135,-0.14805447630367718,0.1087249798376964,0.4868906375243309
2024-01-01 00:00:05.660,-0.16711392926167568,0.058902187007239364,9.16697602758606,1.3471692922725103,-0.5649571041691751,0.03281771958680101
2024-01-01 00:00:05.670,-0.05186989886443692,-0.35869839947867665,9.472762028985496,0.3632216398862188,0.3986036501978264,0.7311853095576868
2024-01-01 00:00:05.680,-0.4703497178291607,0.5390298543764349,9.450107219576944,-0.5936444975484035,0.2847517313986632,0.5662664727251253
2024-01-01 00:00:05.690,-0.20898223107039376,0.04041657935050741,9.848696692263749,-0.145463091311579,0.12678784888168598,0.07108362021434242
2024-01-01 00:00:05.700,0.04289473902638397,-0.24449501760411288,10.2712449140152,0.05018927197574872,-0.24404378125654788,-0.3629884872009497
2024-01-01 00:00:05.710,-0.11261201428104174,-0.30627383145811293,9.644260517473155,0.8128629490575794,0.2835729759153561,0.5128617490598956
2024-01-01 00:00:05.720,0.15121836838591984,0.4758706317651213,9.436139905961893,-0.728496358591412,0.16644612889619362,-0.03778030032805458
2024-01-01 00:00:05.730,0.005577402710111395,0.0017501822480867559,9.1696873177084,-0.7156258613296875,0.14954533830784295,0.0005005184138000183
2024-01-01 00:00:05.740,0.5057171488535785,-0.23197502925601596,8.49706479977039,-0.3311954525887101,-0.4085010950200508,0.14937000636534103
2024-01-01 00:00:05.750,-0.18738186978617033,-0.2530210283929808,8.051902221655043,0.18572636295137546,0.6062441598764512,0.27305420408174363
2024-01-01 00:00:05.760,-0.4410847721700046,0.20799665357651456,7.197202616604892,0.26276883059502054,-1.2292649110967404,-0.03216558762493301
2024-01-01 00:00:05.770,0.09760988158319751,-0.30222674347365014,6.246901100952099,0.5498814043353154,0.7282010032011873,-0.08139597504836413
2024-01-01 00:00:05.780,0.0659705768034756,-0.15646476035496312,5.74052457195828,0.8599272986483247,-1.142162392003844,0.12387094358075165
2024-01-01 00:00:05.790,-0.18063817467399684,0.2618420024554497,4.838643827392466,0.5447031729772526,0.15740008437667552,0.7835525418182997
2024-01-01 00:00:05.800,0.17263481570807004,0.19556428379001786,3.441278130295887,-0.3280249315320854,0.608469837308733,0.3316832218272216
2024-01-01 00:00:05.810,0.4213030731960317,-0.022596772152449866,2.4656244288977227,0.5776194068734161,-0.1483798448973721,-0.04281395263499191
2024-01-01 00:00:05.820,-0.2709467890554462,0.21044887178028965,1.4544204560407021,-0.20476873552196678,0.3768240532512084,0.16507737396940364
2024-01-01 00:00:05.830,0.1416665093932655,0.31414030605743354,0.00924053546419018,0.2762718660087245,0.21560861356897332,0.2339372450835959
2024-01-01 00:00:05.840,0.1058734126458032,0.6680073851889315,0.6300257040478497,-0.1272164162292948,-0.5605614541511911,0.5189226493677307
2024-01-01 00:00:05.850,0.17250598590705388,0.32127135837741466,1.708124726204602,0.5038158811160648,-1.1599688883213142,0.04185517283316178
2024-01-01 00:00:05.860,0.3335996117649692,-0.11072168002190065,2.7659510088234542,-0.38264747607079763,-0.18645024050935163,0.4637026690392081
2024-01-01 00:00:05.870,0.47451352291419757,0.1467867927581942,4.086650932844918,0.18049813129461123,1.0530345344160665,-0.0940416920896427
2024-01-01 00:00:05.880,0.6549063470378798,-0.1495391732705986,4.651031714948617,0.40158539008766814,0.48110965003537043,-0.5805213677857558
2024-01-01 00:00:05.890,0.0897689530428408,-0.28373412351858246,5.757937852312197,-1.0110613248497635,0.9443876256551171,-0.13439307059631075
2024-01-01 00:00:05.900,-0.5858435913594022,-0.047093801516983426,6.646181930777191,-0.19444586034178749,-0.5744136980939096,0.3936465435502831
2024-01-01 00:00:05.910,0.07905685945908632,-0.08161420555130444,7.282191494739709,0.7595315937994738,-0.3218689455254914,-0.16446118189054879
2024-01-01 00:00:05.920,-0.16581172349088702,0.15589122020876908,8.283067072770816,-0.5115587615846542,0.4454770894931077,-0.24746157543485647
2024-01-01 00:00:05.930,-0.2512833966564277,0.009338039469251524,8.618355919380269,-0.08746625708219849,-0.7322992410822039,0.06321301730289156
2024-01-01 00:00:05.940,0.19993912974008649,0.3140895019192356,9.147063846096193,0.42578920852350693,0.18841219269588666,-0.003545691916269835
2024-01-01 00:00:05.950,0.8986957508110782,-0.3924420036593704,9.628550586884629,-0.37851983404607603,0.2052118990173272,0.028368423515108925
2024-01-01 00:00:05.960,0.5582221347343987,0.6826354041999207,9.768293618362584,-0.9340421094748927,0.22877650723214463,0.3608475516375804
2024-01-01 00:00:05.970,-0.21064185677225455,-0.35635801122698024,9.863816499603782,0.32787784069472176,0.15742870259557915,0.13455162630260792
2024-01-01 00:00:05.980,0.667156161170592,-0.6230001522854822,9.972075641108589,-0.693237360654232,0.7296603906471691,0.6368975660940577
2024-01-01 00:00:05.990,0.27951465166113254,-0.10375455448900317,9.766063315945495,1.0715554323324106,0.2045045568966475,-0.038950824248232825
2024-01-01 00:00:06.000,0.25756309149744255,0.1956779229724259,9.25783274689968,-0.6123467066808367,0.01980780557171517,0.1692616629795147
2024-01-01 00:00:06.010,-0.2137099204060355,-0.5525136777771352,8.916188132569559,-0.010497347153700515,0.8534633063862505,-0.0026065933242326684
2024-01-01 00:00:06.020,0.40792186343391373,-0.27869546897924424,8.677884891199055,-0.04805998840289287,-0.8150217040219276,0.5984191391812619
2024-01-01 00:00:06.030,-0.03904857624143435,0.16409932757756718,7.846702045934844,0.14995804458607948,-0.494451283852692,-0.4574973476850089
2024-01-01 00:00:06.040,-0.27657712695468345,-0.8382440512769281,6.685050393072899,-0.14381448380199052,0.4305150897173442,-0.27003958113341947
2024-01-01 00:00:06.050,0.18892386590848415,0.03537721556405097,6.412540020823238,-0.5703337893812668,0.02222721309911369,0.06961053742137273
2024-01-01 00:00:06.060,-0.41016958220803734,0.3453724373314289,5.286711742705187,0.22210483440930331,0.19489307410126677,0.4387899109031071
2024-01-01 00:00:06.070,-0.12431684277306204,-0.15305830254216482,4.499273190868732,-0.00837214484489255,-0.02019264445118641,0.011421733782055786
2024-01-01 00:00:06.080,0.07465341043766392,0.018001375166089403,3.4871304909596215,-0.8169235840054339,0.7025402699224719,-0.43221605641583993
2024-01-01 00:00:06.090,-0.12632449350936753,0.026584862035021025,2.274543488883541,-0.31953674048277814,0.652349802923617,-0.5501949612826438
2024-01-01 00:00:06.100,-0.4551982761954967,-0.17440890147733284,1.5231339818547047,-0.5979609455160293,0.18556329671823651,-0.026637942603820196
2024-01-01 00:00:06.110,0.13845690984371953,0.49739398853428,0.06368353693510136,-0.08929493996967842,0.16283564732267009,0.3182174004637092
2024-01-01 00:00:06.120,0.1401613494001987,-0.086735985981157,0.8404334806139968,-0.23319290831125064,0.11984085224735139,0.053390855236885346
2024-01-01 00:00:06.130,0.017984298957314106,0.32062373595279003,2.0021220049494364,0.6871422999549951,0.15163933920183145,0.18525267157962333
2024-01-01 00:00:06.140,-0.266535072504426,0.09623598271747215,3.2302884180738562,-0.7265631026232413,0.3901802865490946,0.10159164797855656
2024-01-01 00:00:06.150,0.20908205028370377,0.41748429792160563,4.344819979031723,0.5108212263074344,0.0239312985811161,0.0016291854481049488
2024-01-01 00:00:06.160,-0.3475439619390904,0.38285839754459644,5.023014662985079,0.46605370100976773,-0.6680371094910559,-0.37980166121392783
2024-01-01 00:00:06.170,-0.3593929571664323,-0.11467339912560424,5.971867423054784,0.4611494343553589,0.6487833567019567,0.11828596038053955
2024-01-01 00:00:06.180,0.24299889988181855,0.2531519279635481,7.110978335541644,-0.01643104726332678,-0.07113352400028014,0.3588861208581104
2024-01-01 00:00:06.190,-0.2522311868506836,-0.1014567668636643,7.72985236259071,-0.6256543293145765,0.9136296815225474,-0.4127942732264157
2024-01-01 00:00:06.200,0.11181775110319954,0.1141263739896673,8.14946057038883,-0.27113278831830734,-0.4341379274010501,-0.1433843354530468
2024-01-01 00:00:06.210,0.21913684367280983,0.16710524409162233,8.842918139864484,-0.35558277024066,-0.0900364350410116,-0.1641831108711169
2024-01-01 00:00:06.220,-0.333330233890214,-0.1284123834667749,9.293955531824366,-0.06615983522972856,0.3004132631413604,-0.5117929414981318
2024-01-01 00:00:06.230,0.3522836461929361,0.1825474771488969,9.700736987919807,-0.5291564851359924,-0.5330191749306908,0.41160002953066926
2024-01-01 00:00:06.240,-0.11064474052204726,-0.2133701221542072,9.807909587061177,0.13771385516230694,0.39546043431337086,-0.17957534624346944
2024-01-01 00:00:06.250,-0.016931196253190603,-0.627645649165243,9.698775748084646,0.8123767204833677,0.3657046084272213,-0.06415577241350263
2024-01-01 00:00:06.260,0.16588908303391528,0.108459857050257,9.699751039322292,0.4407689380056667,-0.6283082770755806,-0.06827269917860625
2024-01-01 00:00:06.270,0.0009628876571249208,0.266742878738565,9.45155333821407,0.24521010012383865,0.22368400091094087,0.025131304147575133
2024-01-01 00:00:06.280,-0.43635314748279047,0.18205033824709332,9.374564537575328,-0.33590441890868483,1.1131724012236313,-0.006618168283948039
2024-01-01 00:00:06.290,0.13237304164479102,-0.05827610893160514,8.955800700858509,0.5948562431373687,-0.9866697661109802,0.1993326427140504
2024-01-01 00:00:06.300,-0.1414739612362235,-0.059178416691729775,8.116166681218894,-0.22905740810659853,-0.22468860709207913,0.18906310282199001
2024-01-01 00:00:06.310,0.1763824555635112,0.29213661960545156,7.79711291904423,0.824503424370443,0.024306583117945466,0.21536273795161798
2024-01-01 00:00:06.320,0.6363783344663488,0.02527048124843324,6.843407990764609,-0.39582065109990083,0.5656224503304774,-0.42831750961126863
2024-01-01 00:00:06.330,0.04745170853813024,-0.5148140127898749,6.005595814360169,0.271000595374294,-0.06821197363236087,-0.6585649859427092
2024-01-01 00:00:06.340,0.03976813110845951,-0.03951629826569142,5.258259675502121,0.6773417860379567,-0.8894148133391531,-0.5839414323042978
2024-01-01 00:00:06.350,0.3038047191897327,-0.02510835191111835,4.189287106390181,-1.0682461855857535,-0.46456774268279477,-0.2499088685739804
2024-01-01 00:00:06.360,0.0703194046009248,-0.4686761504603163,2.9535405755895505,-0.7163184587281131,0.3021845142416703,-0.8028038398744627
2024-01-01 00:00:06.370,-0.8666047610652032,-0.24648460336335654,2.257660567122496,0.7063782835478429,0.5506545742412808,0.14648048531709196
2024-01-01 00:00:06.380,0.25664377138275074,-0.16076514003225784,0.9287085014964883,-1.0907136518353533,-0.2404784299973664,0.3386268135395726
2024-01-01 00:00:06.390,-0.29181067780681735,0.2714301408388165,0.12621178804782854,0.12526316070675864,-0.421263494437806,1.0653835424500335
2024-01-01 00:00:06.400,0.11928431847935855,0.07093647320653795,1.4905594562781062,-0.20239046584251047,-0.3650532598122933,0.1490195139550682
2024-01-01 00:00:06.410,-0.04714382208320954,-0.047192374916484654,2.356543593719366,0.22870035725040713,-0.720656415594425,0.5793462891239023
2024-01-01 00:00:06.420,0.07836465801182556,-0.08436500167603524,3.358162237202808,0.05865047569937306,0.07885559916530209,0.8888102558869163
2024-01-01 00:00:06.430,-0.04245102258191118,-0.13016167337150375,4.448546657699117,0.19655397377286848,-0.3751249909674177,0.4818541348053011
2024-01-01 00:00:06.440,0.5094049119616738,0.27333065891539565,5.3689208221318605,-0.8728676077833676,-0.8481747124426956,-0.5118651719491635
2024-01-01 00:00:06.450,0.3796253678195938,-0.12793860516459646,6.407245447611083,1.102011415692233,0.004174108569711281,0.027369576862223296
2024-01-01 00:00:06.460,0.47986734753251203,0.042905640730125476,7.125896643161927,0.12164928572138138,0.17951643908013473,0.2903880751416861
2024-01-01 00:00:06.470,0.05970999008521627,-0.21800667870691004,7.9574964953897,-0.3543067379816818,-0.03737092545372913,-0.4897913901689595
2024-01-01 00:00:06.480,0.039477405789694116,0.1483734467400088,8.582282328013761,-0.8727010233724152,-0.4640792994413502,-0.2173602991598156
2024-01-01 00:00:06.490,0.34047192808064736,-0.059579784688446547,8.954172138193375,-0.12523570135923862,-0.3440475367500919,-0.587595606889881
2024-01-01 00:00:06.500,-0.5456029922199369,-0.4658409801487893,9.650978132790298,0.9946201858819516,0.2669368028686983,-0.05421610425338472
2024-01-01 00:00:06.510,0.20250886603570942,0.05255198526603002,9.466590013499856,-1.3552484111665406,0.4564689700367325,0.3620978478597467
2024-01-01 00:00:06.520,0.10081373255646302,-0.3551778798272808,9.85746591855527,0.07007192446027806,-0.5089268577495245,0.5633468890852866
2024-01-01 00:00:06.530,-0.05193719789378993,0.25386399340591875,10.000089186187363,1.2773306284713974,-0.06585568233064576,-0.24299371807246534
2024-01-01 00:00:06.540,0.3397003951902183,0.4003879170504015,9.60589392060305,-1.1882548196095235,0.5503107428441689,0.10440666629741199
2024-01-01 00:00:06.550,0.4263897517052891,0.2498558230588388,9.344461233871964,0.03999272511716113,0.32689283428445187,-0.36104483245596297
2024-01-01 00:00:06.560,-0.5425780164679914,0.09541652471807208,9.343863807625588,-0.5639183311612791,0.19168565246484123,-0.9476051992029405
2024-01-01 00:00:06.570,0.35213206905225297,-0.3225306401152351,8.633682972425872,0.2822900452725363,-0.5896181541506004,0.06128971511045962
2024-01-01 00:00:06.580,0.33850413497784027,-0.11156621029016281,8.341616183997996,-0.4152121738551089,-0.38723801036506594,-0.19515213759776823
2024-01-01 00:00:06.590,-0.13602224237264327,-0.08372798851148179,7.620770598146635,0.27607450862956046,0.2946822979938273,0.5843099360996812
2024-01-01 00:00:06.600,0.6198302906630221,0.47226418445191914,6.707853895343899,-0.07351388083838457,-0.49765243255866387,0.8235952448396574
2024-01-01 00:00:06.610,0.0257749311461677,0.16407932608108944,6.069016611284334,-0.2499488438794766,-0.6412202431823912,-0.14269707736930357
2024-01-01 00:00:06.620,0.21726490458541678,0.3096252736246495,4.936774546217918,-0.7527386771874008,0.49881883974260105,-0.45399689253522224
2024-01-01 00:00:06.630,0.12735962325044836,-0.007590899973311196,4.199267864190672,-0.2985149644714614,-0.3239518849797685,-0.09180939456354395
2024-01-01 00:00:06.640,0.17703235944103837,-0.4226466830533194,2.912706358970163,-0.19424873651085456,0.27701144292692953,0.42942811360472155
2024-01-01 00:00:06.650,0.32160362766117306,-0.08631194639171968,1.8729755843617482,1.536685855509563,0.591032442139006,-0.6082001339651527
2024-01-01 00:00:06.660,-0.3565160185120095,-0.328662834650814,0.6726418060845576,-0.4318531937625475,0.16925708523008443,0.25003949714352186
2024-01-01 00:00:06.670,0.3296749978091991,0.16950059119785613,0.3875090252103188,-0.20526088987120086,1.0975732671878762,-0.1081565168215544
2024-01-01 00:00:06.680,-0.09670408279232066,0.9983380209185753,1.4616920961639637,-0.771822932865025,0.24046046505597518,0.11347068119104958
2024-01-01 00:00:06.690,0.29759731749351526,-0.3613397068677411,2.6299793149973696,0.9184598184706934,0.49997104161271466,0.0475293929224462
2024-01-01 00:00:06.700,0.06421460346510371,0.06109091639283484,3.5541623968799327,-0.17028270505209328,1.277632476656292,0.05706268913319939
2024-01-01 00:00:06.710,-0.016765747135918222,0.3497186179843765,4.482764012563413,0.3207106715961872,-0.1655820095072173,0.6536096295421504
2024-01-01 00:00:06.720,-0.1883957936856974,0.08289085488371935,5.572062826854574,-0.19725991201273443,-0.3497589467362074,-0.5411906532131985
2024-01-01 00:00:06.730,-0.11420628129562549,-0.3634511399148198,6.4810547064223405,-1.251106111422767,-0.053977647434484445,0.6131985039318535
2024-01-01 00:00:06.740,-0.2473168720894525,0.17888193205017947,6.835850257448076,0.11608581415493491,-0.9097912833374788,0.22579648425617083
2024-01-01 00:00:06.750,-0.2252729078287721,0.6154727773717837,7.847853129252119,-1.1974188970717838,-1.1637708182559363,-0.21931338193692207
2024-01-01 00:00:06.760,0.16278648347850092,-0.6092573005863222,8.541754996206466,-0.792105413629278,-0.202792610217991,-0.07836511474816917
2024-01-01 00:00:06.770,0.029240298260770032,0.10301183464083274,9.008203948708946,-0.3817020848638436,0.3337015727374724,-0.13864136125310428
2024-01-01 00:00:06.780,0.18906486224357008,0.4028210876340413,9.512854359042382,0.09213118678197481,0.16847767115031642,-0.5599449481090253
2024-01-01 00:00:06.790,-0.28845902596393275,0.43793842511729014,9.686935244088566,-0.2007826973852772,-0.21614494254983677,0.5952906162290342
2024-01-01 00:00:06.800,0.6348938610265448,0.058200671537936455,9.975810668344096,0.004267341719191179,-0.48043457945701884,-0.38726746575378734
2024-01-01 00:00:06.810,-0.20699266406610706,0.14531775988803616,9.851269013852837,0.8150318274254448,-0.5351746425775027,0.2890933934102714
2024-01-01 00:00:06.820,0.16123870836937557,0.15257573644257433,9.585562904225796,0.8266138947394225,0.4327361920677748,0.32737796237548
2024-01-01 00:00:06.830,-0.03570319586948951,-0.10432264006988334,9.404541420816383,0.8885907825978798,-1.0454655319588084,0.1080468356223715
2024-01-01 00:00:06.840,0.15039218484915529,-0.1513819257255596,9.33118634949542,0.4395589514309128,0.19989615518526682,0.23407535735569482
2024-01-01 00:00:06.850,-0.5050653358678331,-0.1831336079304718,8.564179473367657,-0.43615422039050983,-0.7987753594011835,0.1485295807218842
2024-01-01 00:00:06.860,0.07532289512562249,-0.7218415696673673,8.049988684550977,0.13742899787879057,0.05111966513745559,-0.42167705360461016
2024-01-01 00:00:06.870,-0.04815985046343744,0.25528628100876866,7.312931511287206,0.6442486115978578,-0.5057731458219593,0.1731311987581233
2024-01-01 00:00:06.880,-0.31437277237556877,0.0978355700907335,6.7239545183846845,0.5075169552624217,0.8593615450919975,0.035066089136444524
2024-01-01 00:00:06.890,-0.2276007875176372,0.11213532062891467,5.68516017294887,0.08569753760441015,-0.003530341573519415,0.1425097511119154
2024-01-01 00:00:06.900,-0.12439655911858513,-0.10868894759946585,4.569096810262643,-0.35134774971307875,-0.017231563663608424,0.20859518745421327
2024-01-01 00:00:06.910,0.153785391051049,-0.2972259662836604,3.908576439320542,-0.8689314816186205,0.02016197788896702,-0.031190791864153317
2024-01-01 00:00:06.920,-0.023624340749892288,-0.1340516430823604,2.8878370992669766,-0.9543398359919725,0.39715077904804497,0.5926923401428008
2024-01-01 00:00:06.930,0.5217106855367888,0.08088664216103064,1.6569609466131536,0.28075532990624935,-0.14415638239512704,0.1291928442464112
2024-01-01 00:00:06.940,0.056659247298186055,-0.30174211846647303,0.6374513551074251,0.3940560554282797,0.6229049021768707,0.1769326315913106
2024-01-01 00:00:06.950,-0.38519662857555603,-0.3709823054666848,0.9364827941120152,-0.5411732417854298,0.57574186377933,-0.2589832469431818
2024-01-01 00:00:06.960,0.020441205894131814,0.4722100606956466,1.7819227138323812,1.8726205107936769,0.5950635527464606,0.14164557850164602
2024-01-01 00:00:06.970,-0.25038394204892594,-0.09283182838321405,2.668384798355422,0.4302805034939194,0.9472932740541992,0.0896267357216628
2024-01-01 00:00:06.980,0.7405654302126876,-0.2919844910612133,3.6850497684115346,0.5138409754337409,-0.17067721721064352,0.25242948709239843
2024-01-01 00:00:06.990,0.24065376491525706,0.5862790657996781,4.894855671045565,-0.39768184478711477,-0.2833293811867763,0.7247342578138902
2024-01-01 00:00:07.000,-0.363710025000564,0.04107177390127514,5.684995484143579,-0.014836786598122815,-0.6473233484184521,0.02481128329904295
2024-01-01 00:00:07.010,0.4816900906115978,-0.11288396285731811,6.7728983950031,0.15754723415040606,0.24173163094304423,-0.14715605799763518
2024-01-01 00:00:07.020,0.007431297467650331,-0.3701996957910027,7.503941777363491,0.0007616672336113725,0.7723713827742019,-0.004578467227582794
2024-01-01 00:00:07.030,-0.007474204531314218,0.06700769758330105,8.028332405325541,-1.1478245494390846,0.26217636146224255,0.5174473273761888
2024-01-01 00:00:07.040,0.14652909597071234,0.19133304328414447,8.496333397465447,-0.1301309593052784,-0.9350961829363592,0.13419343362669808
2024-01-01 00:00:07.050,0.27073842465281867,-0.08794551334105886,9.358184471718614,-0.7658178974536964,-0.6369913395101443,-0.08956895051845917
2024-01-01 00:00:07.060,-0.14292591200813407,-0.08767647610611272,9.899275806052037,0.44719818734371874,-0.5169548548780718,-0.2669614250679631
2024-01-01 00:00:07.070,0.3276345273609589,-0.14997997524893486,9.788906022067751,-1.1446546334906034,-0.7116226326834999,-0.03222680753393073
2024-01-01 00:00:07.080,0.19725709780935802,-0.27294305817447484,9.739984691648981,1.315696570208816,-1.0449143046041907,-0.3086528241821062
2024-01-01 00:00:07.090,0.06903881525625725,0.29260707919301787,9.687612684774454,0.9625319048160185,-0.09763014490923273,0.1362059508897755
2024-01-01 00:00:07.100,-0.1844254305458913,0.05839790694641962,9.55608466337425,0.0027349549783981277,0.4104370801087415,-0.18634624479885079
2024-01-01 00:00:07.110,0.06487591339725716,-0.30189952212719184,9.207110133313483,-0.5197795742156278,-0.9434102287143368,-0.21762431013098985
2024-01-01 00:00:07.120,-0.3238818124568272,-0.005560478818969441,9.096944943599977,0.5069066520492888,-0.49877129157248157,0.07597526272171075
2024-01-01 00:00:07.130,-0.08180187194559417,0.22018884912189732,8.342205812106265,-0.5320383892324737,0.571485688765496,0.05044245789435744
2024-01-01 00:00:07.140,-0.07802706012632456,-0.03888329901989238,7.779488732431115,-0.25864170749124765,-0.7624127993654662,-0.291836052211842
2024-01-01 00:00:07.150,0.433477782853357,0.2510482560315418,7.048164890877679,0.964271031229898,0.24769889921557875,0.12030403187983389
2024-01-01 00:00:07.160,-0.25116030554910296,-0.4350027438932255,6.40752316863828,0.41756162190245244,-0.16004297458971936,0.21933834805453498
2024-01-01 00:00:07.170,0.2916917762739723,-0.3270160518256664,5.384971308425837,-0.3965153177408256,0.6002109292128283,0.3013846007437562
2024-01-01 00:00:07.180,0.09656096468694042,0.15709590903174991,4.479984052689192,-0.5638934032343076,-0.1759689713026366,0.6454917568660806
2024-01-01 00:00:07.190,0.023858356876234502,0.2770174862618399,3.2906274655954793,0.35142099319471376,0.5775738999097704,0.5071751976089183
2024-01-01 00:00:07.200,0.09177140276718396,-0.053782183547308786,2.246531625455008,-0.06253239809573637,-0.8773184764001677,0.4377350204333478
2024-01-01 00:00:07.210,0.5607926947913691,0.0010645651427855108,1.3851782270837987,-0.21311783085648464,-1.1608084510392542,0.3402612200539282
2024-01-01 00:00:07.220,0.2938882825884022,0.32524092951312156,0.41885417522504065,-0.0354904873264381,-1.1802274468784344,0.05142682390292607
2024-01-01 00:00:07.230,0.4426646285458031,-0.021503379680174777,0.7110400203545111,-1.0408371452142249,0.9543697288127023,0.2671463173075178
2024-01-01 00:00:07.240,0.2810739687818834,-0.41106326058125814,1.9468894634428953,-0.10257985274921595,0.3295748353531543,-0.12142363872742942
2024-01-01 00:00:07.250,0.08943429942665446,0.13499216397346459,3.188845363518381,0.18721785273699104,-0.3255222300498122,-0.0785357642483897
2024-01-01 00:00:07.260,-0.06454119560927042,0.2958638409577073,4.182833261191861,-0.6463619647060571,-0.8546871574293747,0.1223741159330552
2024-01-01 00:00:07.270,0.09168441539511188,0.2861849031958849,4.807432875864732,-0.700101113740006,-0.0821325483687152,0.06511100713791707
2024-01-01 00:00:07.280,0.11750303148578632,-0.31680613413869446,6.15714737329011,-0.11774421558388297,-0.619978957809379,0.7752486346704776
2024-01-01 00:00:07.290,-0.326967322653186,0.08600560470421027,6.944298844276172,0.45346637949704177,-0.7236294223876715,0.1211389808794832
2024-01-01 00:00:07.300,-0.48520712999963,-0.054076920737999225,7.411540526616059,0.017727675727359553,-0.29073496643273733,0.04990535896831435
2024-01-01 00:00:07.310,-0.04320538688123203,0.09843997485812063,8.183832668054814,-0.6309017889567917,0.773527596615563,0.42451431248123
2024-01-01 00:00:07.320,-0.17368792244397396,0.6321496050875439,8.799723541117471,0.26990527529893243,0.7701726885003971,0.2154233325485688
2024-01-01 00:00:07.330,0.01404577611690641,0.024333719834363055,9.214678990833873,0.8258848304813795,0.11868164371192298,0.6971316354556888
2024-01-01 00:00:07.340,-0.3023612174843338,0.26671165138725106,9.519056127181983,0.413275134819564,0.5956049130491877,0.36980123092712514
2024-01-01 00:00:07.350,-0.24463131332935595,-0.004688843384304745,9.600432756005178,-0.8834214490474017,-0.24316229493493552,-0.3453240959179916
2024-01-01 00:00:07.360,0.4662241382932846,-0.10148955539791356,9.838560592808856,0.839083619186692,0.4420986642722615,0.15590849758073524
2024-01-01 00:00:07.370,-0.533765009992862,0.1597735645326751,9.943924436035879,1.494260236273282,-0.6010167327458049,0.05503312386434387
2024-01-01 00:00:07.380,0.33737175579365547,0.03843151969819275,9.533076745994542,-0.9564862270400067,0.5741838522868626,-0.1755652540161372
2024-01-01 00:00:07.390,0.16503729202427642,0.18503814172845873,9.042719762714853,-0.8590333766151951,0.5347189263837537,-0.6181239395915056
2024-01-01 00:00:07.400,-0.007047313399236039,-0.3083786289243275,8.937450089592065,0.6611542262071848,-0.19491662499674917,-0.3758847988541651
2024-01-01 00:00:07.410,0.2246502020206447,0.10833895184312196,8.143582191367827,0.5216952802675873,-0.25893859512012163,0.37049511326260537
2024-01-01 00:00:07.420,-0.5728942948895126,0.13658591814381946,7.7708610992366545,-0.6868331264550015,-0.5399813109983861,-0.47536994839433244
2024-01-01 00:00:07.430,0.1392813054882784,-0.5373271036362125,6.64231550756869,0.3277604155988582,0.35407321359279026,0.4925265600630774
2024-01-01 00:00:07.440,-0.25581805176469613,-0.29501317452257914,6.0607568307854995,0.4267330821312039,-1.3385453285043258,-0.3005840553328032
2024-01-01 00:00:07.450,-0.08382708431503492,0.31932260658940476,5.2725081322999525,0.4749862375636589,-1.511919836187054,0.32613004529161616
2024-01-01 00:00:07.460,-0.3593982895685687,0.19002117270985178,4.250993671968845,0.4523662968578284,-0.24667633811706516,0.4825811410738913
2024-01-01 00:00:07.470,-0.12245760925750819,0.18539191699138838,2.888110008061225,-0.331881646034757,-1.0848891783112713,-0.19079828318843325
2024-01-01 00:00:07.480,0.12848651507845593,0.6842053287067419,2.1633792536847705,0.10891804769753118,-0.2501720641217669,0.3911415007332256
2024-01-01 00:00:07.490,0.035115827494190045,-0.38989174992440534,1.1796125147611793,1.1354081850731275,0.7073744054906115,0.36647011289846493
2024-01-01 00:00:07.500,0.06553145249756398,-0.19971523696488083,0.11010182193817313,-0.028653463191431548,-1.025517201030138,0.37668973804230405
2024-01-01 00:00:07.510,-0.3484959672359034,-0.029171142574242224,1.0538982447788459,-0.19091545309294658,1.866694896753647,-0.7703530321878819
2024-01-01 00:00:07.520,-0.6578910441740466,0.08342686148383331,2.139851854777221,-1.1504267491491762,-0.5679531199551829,0.2123573662609625
2024-01-01 00:00:07.530,-0.33131757118902444,0.023665035171163,3.1194630300990496,0.10582538240416396,1.2730984819202276,-0.44935857982579
2024-01-01 00:00:07.540,-0.29144367891949113,0.25807144017273637,4.258559538678225,0.7140837968194234,-0.658065752508375,0.10416350471532451
2024-01-01 00:00:07.550,-0.15706442215485772,0.1937071988671881,5.217772381578633,-0.762021576619881,-0.8495186018507123,-0.02487028869747406
2024-01-01 00:00:07.560,0.5327309431775301,-0.30059916758241545,6.13500567489707,0.9686155532395813,0.6369677375290206,-0.22498176209469825
2024-01-01 00:00:07.570,-0.293866639290873,-0.5569177082435364,6.988310335480868,0.9170467929881113,0.5345838267903291,-0.38724735578092206
2024-01-01 00:00:07.580,-0.2976426417937803,0.12276827230590939,7.864514881295256,0.4799190468060417,-1.0803098537645148,-0.3721641956502724
2024-01-01 00:00:07.590,-0.11382535676269853,-0.051702103874524306,8.463237918454515,-1.7319601199894532,0.014535608410086942,0.3655919014481468
2024-01-01 00:00:07.600,0.05781889257401112,-0.16689845423468483,8.808616021611003,1.5608988532335868,0.020486382237866283,0.30321648149358016
2024-01-01 00:00:07.610,-0.1202133442903797,0.38053526821971856,9.042538720026446,-0.6256943178056058,0.22985768727160705,-0.5614703079146525
2024-01-01 00:00:07.620,0.3591942724873574,0.3680391642380266,9.66417819212212,-0.3782950989546633,-0.1450001692203609,-0.6679188957938791
2024-01-01 00:00:07.630,0.47696980562954133,-0.009952973036389133,9.770868528540134,-0.5787865234204325,-0.5395842248072117,-0.10878317877866224
2024-01-01 00:00:07.640,0.32180344413148504,-0.2242043092384089,10.032201275676009,-0.2658733930932566,-0.6318436162411912,-0.48985879734667853
2024-01-01 00:00:07.650,0.056353817121325235,-0.031094942705126506,9.79019881436065,-0.045611525920028796,0.4149117582529318,0.14393127817599166
2024-01-01 00:00:07.660,-0.29409198044806706,-0.04237513658313419,9.801726714722035,0.20135056307538077,-0.022109307024718323,-0.14116468020123438
2024-01-01 00:00:07.670,0.291798086164789,0.1826095947104848,9.213331775905806,0.0852147039493117,-1.2960282800497844,0.3496002614802986
2024-01-01 00:00:07.680,-0.39554710558208006,-0.12914603517692494,9.014065791376758,0.3593888092818019,0.3311453904383113,0.3346941683996874
2024-01-01 00:00:07.690,-0.3424412882267939,-0.1910379857989794,8.334908825196203,-0.5868602313373782,-0.24829425814793427,0.14938562223493357
2024-01-01 00:00:07.700,0.15603774886024235,0.30831272145367555,7.560954664822382,-0.02960291843649754,0.3033461365669841,-0.18968761355565042
2024-01-01 00:00:07.710,-0.14711425174863055,-0.18682474634529192,7.12718751570696,-0.36615608668781446,-0.2639285439397415,0.3151213937688971
2024-01-01 00:00:07.720,-0.2420570462210297,-0.3621478219681965,6.2286504647929855,0.10685776343605476,-0.032359058027092026,-0.03722766155991416
2024-01-01 00:00:07.730,0.15365662633803825,-0.058912348862309005,4.971941119073381,-0.21186940086923942,0.2290389166872059,-0.20713718455979035
2024-01-01 00:00:07.740,-0.25009564739972684,-0.6335384410546283,4.132426381967291,0.24350233829237167,-0.13849955992948362,-0.48957340098124147
2024-01-01 00:00:07.750,-0.1904650594965533,0.07207983345706397,2.9348685987110783,-0.14775865356153958,1.3370961780913426,0.4413287897274603
2024-01-01 00:00:07.760,-0.2936566174003077,-0.20278180897111991,1.8376885122614526,-0.6323915235094009,0.979334593871907,-0.2202012070742584
2024-01-01 00:00:07.770,-0.4470787495234652,-0.16157483710907683,0.5984708434755367,1.1815865022854142,0.27653098424112466,0.5244745704133787
2024-01-01 00:00:07.780,-0.08598195517692149,-0.27799680794431175,0.007417445329508082,-0.005128058098479752,-0.3935856625091665,-0.35506115404175237
2024-01-01 00:00:07.790,-0.01460754711362941,-0.49606645941648053,1.515518412398106,0.45148174489108794,0.21352077476226325,-0.38456914144783205
2024-01-01 00:00:07.800,-0.20011791668262435,-0.05406354569199499,2.5289271789484817,-0.20783604987445742,-0.1933239308093703,0.34038843585951906
2024-01-01 00:00:07.810,-0.14622647269427702,0.16389594550519834,3.49668403819512,0.18915745646432727,-0.9612103745241622,-0.035383706521012734
2024-01-01 00:00:07.820,0.47406129261067137,-0.22265058422012188,4.360125657100486,-0.6219259884558596,-0.48904861732322374,-0.026928272606078822
2024-01-01 00:00:07.830,0.16983960078145602,0.262763100308459,5.62958350279428,1.1831922771646093,1.0407947707067187,0.1735390270518985
2024-01-01 00:00:07.840,-0.3559672994604555,0.27148544447362805,6.2580854191332405,-0.3277860125670988,0.29997638272602745,0.36796449181355634
2024-01-01 00:00:07.850,-0.13440897307011765,-0.43235235238200453,7.098092758161859,0.24099740168624095,-1.6705092644448019,0.42592856020869896
2024-01-01 00:00:07.860,-0.18085140621042123,-0.12768989346386803,7.804267431008342,2.059732354868244,0.40306868538897694,0.958006265644198
2024-01-01 00:00:07.870,-0.21746792291403214,-0.18932227488957423,8.506695977466746,0.4148259996275636,0.040092314298579255,0.04312607002816002
2024-01-01 00:00:07.880,0.27042178843812786,-0.16183487871548047,9.154833302794488,0.3473673815292837,0.16058281717120135,0.018822263581875883
2024-01-01 00:00:07.890,0.004919625625019758,-0.26898934090489274,9.22742826804498,0.027198706667428667,-0.5954965270806334,-0.14596749059310263
2024-01-01 00:00:07.900,-0.07073688731772644,-0.30655019456229,9.447340414748314,0.13533080951455326,-0.9541878015607386,0.0943920923803103
2024-01-01 00:00:07.910,0.017584914661023972,0.24622430502362946,10.029033972463857,-0.02965141844950876,0.38142631907272373,-0.1267298398125402
2024-01-01 00:00:07.920,0.15131001601793823,-0.26696753051465943,9.887746483448385,-0.13578325241442885,0.6205477387172398,-0.1837590219599762
2024-01-01 00:00:07.930,-0.5813340447253106,-0.19115887872547227,9.69069213752788,-0.3646994208443678,-0.5568415454864525,-0.4937141034676599
2024-01-01 00:00:07.940,-0.03550983783017963,0.19559722970155496,9.43832499388011,-0.7255110023833333,0.6557008337509053,-0.7084930633528144
2024-01-01 00:00:07.950,0.03448923378094167,0.24116205440616037,9.323329543308535,0.2996649211522657,-0.7713846333295664,0.24569046270635653
2024-01-01 00:00:07.960,0.23322934720722072,-0.4037017849199763,8.464930834001455,-0.5776964018774408,0.048530187472355026,0.18391789784789722
2024-01-01 00:00:07.970,0.26423231983320306,0.319342153530624,7.8943098162452685,0.38279059021110745,-1.1309721973974574,-0.17574993914456008
2024-01-01 00:00:07.980,0.13571730504438798,0.10178203851162099,7.289055094053853,0.28283913130901694,-0.9683702090149128,0.05524870176001791
2024-01-01 00:00:07.990,0.10646210257620697,0.29204506676777275,6.530291667898778,0.5601087845310293,0.5498054752839742,-0.20525487627470218
2024-01-01 00:00:08.000,-0.48557017943272063,-0.20290413765715304,5.770733131557613,-0.6191915854760258,-1.048853733378736,-0.014181274701571406
2024-01-01 00:00:08.010,0.00528612353264629,0.24026457254852615,4.812920984871732,0.27137046965398776,0.6121869958785977,0.2973018604093574
2024-01-01 00:00:08.020,0.041764308837573136,-0.49204094635253326,3.854598194157709,0.05052654433572052,0.32736122113599464,-0.7699519101192307
2024-01-01 00:00:08.030,-0.3719659243463668,0.15730172066348908,2.6131780413551216,-0.5282308161307755,-0.6067745840955179,-0.9215129077305405
2024-01-01 00:00:08.040,-0.18145573179738914,0.09022240876027535,1.58858551011151,-0.5449685928074963,-0.3561412609441884,-0.027221648898395123
2024-01-01 00:00:08.050,-0.2526203405242271,0.013494395500519224,0.7955360396377507,0.18239579081965826,-0.17265092875246993,0.11770694460582824
2024-01-01 00:00:08.060,0.038092402601691853,-0.09163626820920144,0.6102726729048703,0.2669423622332372,-1.4203543801277345,0.25162163048660574
2024-01-01 00:00:08.070,0.3231129618775437,-0.2887364771657208,1.6145786722977045,-0.1256834715505636,-0.31974249984893005,0.37094040057376365
2024-01-01 00:00:08.080,-0.16628467519726267,-0.3413499971474841,2.511227259315336,-0.2295059723517393,0.5650820499555025,0.2868078975613537
2024-01-01 00:00:08.090,0.1548266508548176,0.2460041855220752,3.630265639528639,-1.0259848161678884,-0.14254367670392248,0.843870608525308
2024-01-01 00:00:08.100,-0.23474509513341216,0.08852950242234335,4.925598553961196,0.6608519165012324,-0.9156056507302555,-0.6080435074346299
2024-01-01 00:00:08.110,-0.0327913044277734,0.008842251065445674,5.761556694567952,-0.1161521442763646,-0.4181600892806914,0.1135907775704403
2024-01-01 00:00:08.120,-0.2346226155376101,0.01839481615282074,6.370036476394801,-0.45514771773015034,-0.5188888293484685,0.03198526480859561
2024-01-01 00:00:08.130,-0.4840482260923014,0.6228138687077492,7.222879068906196,-0.42251161261171166,0.6728945871661509,-0.24130472908670417
2024-01-01 00:00:08.140,0.05338027663014535,-0.061747230285376854,7.956679135900369,-0.28713045767177464,0.25427778615336216,-0.2016417932437463
2024-01-01 00:00:08.150,-0.044685458238287096,0.32947992888925387,8.711467375086347,-0.681631123839153,-0.17208468949914812,-0.02033963055617179
2024-01-01 00:00:08.160,-0.24583916230800384,0.24089901087309673,9.171384204185363,0.08154423816411309,-0.21384018403325286,0.17776374694635785
2024-01-01 00:00:08.170,-0.4515095675822963,0.18434648448692795,9.583118995028924,0.010055613721696471,0.33814238078049147,0.2752888285472879
2024-01-01 00:00:08.180,0.01695452169534624,-0.12152517951238484,9.935020454331854,-0.06021947869970721,-0.3989195028075301,0.08587003995183502
2024-01-01 00:00:08.190,-0.12995606083796693,0.03801319431032381,9.865616019158338,1.7353625550936063,-1.651904676034037,-0.4946826325415137
2024-01-01 00:00:08.200,0.2379127159165915,0.5947731429186898,9.738032110250575,0.24802842562290378,-0.5582829732858162,0.24695766002134412
2024-01-01 00:00:08.210,-0.2138183228001281,0.25445843338339924,9.4257546127167,0.749847901913573,0.4039271810639044,0.48175534067557385
2024-01-01 00:00:08.220,0.21535616151234646,0.487174447642375,9.49765472655457,0.48683646104775397,1.2037204287970982,0.043599626432187795
2024-01-01 00:00:08.230,-0.042381678239492994,-0.2912450117782795,8.8444402042037,0.1848809358062209,-0.38353836534198743,0.44255775286637816
2024-01-01 00:00:08.240,-0.2639921009824768,-0.5487515267596409,8.525127418651376,0.09958011990411263,0.2174630119077767,-0.11487488962726301
2024-01-01 00:00:08.250,-0.2727318464672692,0.3729621834810076,7.968659720079931,-0.03476472586300446,-0.7822256062587026,0.3035417814750465
2024-01-01 00:00:08.260,0.3358006415319486,-0.1498714431730071,6.93368949407699,0.08438191859320802,0.1905342624841703,-0.842326026820129
2024-01-01 00:00:08.270,0.1308860858928147,-0.10532175212602662,6.632463963862078,-0.41619401342278234,0.25901950325472445,0.19707061569829826
2024-01-01 00:00:08.280,-0.06199349304520587,-0.057405981255154906,5.518145312803765,-0.5386313975885691,0.31610310641153627,-0.6618475528174157
2024-01-01 00:00:08.290,-0.28397645269522076,-0.3452172285356524,4.8066215146637905,-0.21644709068811727,-0.0755712000211486,0.1537880021192442
2024-01-01 00:00:08.300,-0.06246204121529258,-0.013350887339334705,3.797128126387941,-0.366797896022208,-0.3886611613195914,-0.3698651585058798
2024-01-01 00:00:08.310,0.030446474203199275,0.1929419149993085,2.6971952817947638,-0.9187708047592157,-0.22329930112805974,0.04320181889532245
2024-01-01 00:00:08.320,-0.4913925472457438,-0.16629463297564281,1.5145696784469092,-0.48873427447672185,-0.3421446178062923,-0.4424789030067729
2024-01-01 00:00:08.330,-0.18706022828318283,-0.19300414547750017,0.2661028287827081,-0.02022051948892691,0.02672654870881517,-0.0456872960356773
2024-01-01 00:00:08.340,-0.08113081085682229,-0.32122051133517776,0.824891117400973,-0.48520700130713185,0.4608391262707247,0.3247736295847914
2024-01-01 00:00:08.350,0.09242114520038335,-0.6727916815076849,1.8039209148436195,0.1688570906327161,-0.09690575745718001,-0.2320349598489392
2024-01-01 00:00:08.360,-0.24162183517938507,-0.13355018461937673,2.8911589211300437,0.3315106909758512,0.3206695348178414,0.2730033908631772
2024-01-01 00:00:08.370,-0.2275484543324761,-0.055966919783122314,3.922325164937936,-0.764665470354649,-0.305784497066656,-0.8841067733049619
2024-01-01 00:00:08.380,-0.47912834442143953,0.16721653075304774,4.787441426335295,0.4158328132803594,0.3458707331840655,-0.052314242214634
2024-01-01 00:00:08.390,0.29544355363770897,0.04129482525880889,5.831200116758539,0.44106874814102265,0.22563714915036348,-0.26122049941749004
2024-01-01 00:00:08.400,-0.1214519444464991,-0.3053999199424702,6.418009368716061,0.2406947606546627,-0.08840201096126982,0.49681499798851436
2024-01-01 00:00:08.410,-0.12714638818354976,0.24258895864185254,7.869921114297581,-0.3222146454636261,0.2225895070582008,-0.1001404417581017
