timestamp,acc_x,acc_y,acc_z,gyro_x,gyro_y,gyro_z
2024-01-01 00:00:00.000,0.34087,-1.047386,8.586739,0.191351,0.234963,-0.021513
2024-01-01 00:00:00.010,-0.094884,-0.472351,9.117238,0.268353,-0.375796,-0.004898
2024-01-01 00:00:00.020,0.444476,-0.227069,8.775618,0.124672,-0.065559,0.009644
2024-01-01 00:00:00.030,1.045179,1.036341,9.208301,-0.485624,-0.008332,0.142029
2024-01-01 00:00:00.040,-0.160688,0.305548,9.574863,-0.038856,0.003182,-0.112083
2024-01-01 00:00:00.050,-0.160676,-0.733179,10.729196,-0.288927,0.036099,-0.126952
2024-01-01 00:00:00.060,1.083735,0.266834,9.457367,-0.050651,0.122088,0.185493
2024-01-01 00:00:00.070,0.526652,-0.84947,8.068983,0.245001,-0.007081,-0.069397
2024-01-01 00:00:00.080,-0.322177,0.594397,11.061794,0.076288,-0.073612,-0.189455
2024-01-01 00:00:00.090,0.372332,-0.258647,8.890875,0.287023,-0.081518,-0.072769
2024-01-01 00:00:00.100,-0.31802,-0.051406,9.745525,0.085438,-0.122303,-0.049508
2024-01-01 00:00:00.110,-0.319607,0.727862,10.300297,-0.324581,0.157509,0.233244
2024-01-01 00:00:00.120,0.166047,-0.706653,10.029172,-0.630212,-0.129306,0.138724
2024-01-01 00:00:00.130,-1.312989,-0.767018,11.011409,0.037202,0.169354,0.172128
2024-01-01 00:00:00.140,-1.183725,-0.320396,10.335945,-0.053482,0.0038,0.122996
2024-01-01 00:00:00.150,-0.38587,0.57007,8.864282,-0.244236,-0.104251,0.141937
2024-01-01 00:00:00.160,-0.695055,-0.834121,12.202061,-0.425157,0.123681,-0.103212
2024-01-01 00:00:00.170,0.215652,-1.554853,10.023378,-0.183686,-0.145491,-0.02979
2024-01-01 00:00:00.180,-0.623132,-0.247686,9.64822,-0.048623,0.127637,-0.148487
2024-01-01 00:00:00.190,-0.969193,0.302906,10.86839,0.166469,0.042545,-0.031573
2024-01-01 00:00:00.200,1.005801,0.658944,10.083897,0.047158,-0.119265,0.102616
2024-01-01 00:00:00.210,-0.154939,-0.254276,10.248353,0.402017,0.105727,0.020187
2024-01-01 00:00:00.220,0.046341,-0.225873,12.546418,-0.258901,0.109318,0.196722
2024-01-01 00:00:00.230,-0.977733,0.633492,9.507917,0.220265,0.231504,-0.171212
2024-01-01 00:00:00.240,-0.373583,-1.026488,9.461099,0.011825,0.193229,0.075036
2024-01-01 00:00:00.250,0.076121,-0.213298,9.938003,0.173667,0.098255,-0.187245
2024-01-01 00:00:00.260,-0.789869,0.104543,10.986524,-0.109129,-0.225518,0.014126
2024-01-01 00:00:00.270,0.257823,0.246621,8.155826,0.26792,0.489717,0.11105
2024-01-01 00:00:00.280,-0.412188,-0.279884,7.65182,0.073806,-0.280723,-0.032175
2024-01-01 00:00:00.290,-0.200175,0.018908,9.165347,-0.169861,0.189853,0.082669
2024-01-01 00:00:00.300,-0.412921,-1.366092,8.015953,-0.003006,0.086257,-0.14396
2024-01-01 00:00:00.310,1.271126,-0.361378,9.343535,-0.059889,-0.234828,-0.249553
2024-01-01 00:00:00.320,-0.009262,0.248976,10.361745,0.122295,-0.02486,0.083554
2024-01-01 00:00:00.330,-0.725854,-0.539279,8.831958,-0.294944,-0.015751,0.261602
2024-01-01 00:00:00.340,0.564471,0.032382,8.243344,-0.007338,0.261117,-0.149407
2024-01-01 00:00:00.350,-0.837804,0.245333,9.886132,0.098827,-0.142662,0.183329
2024-01-01 00:00:00.360,0.143333,-0.18806,10.757073,0.008256,-0.052389,0.006514
2024-01-01 00:00:00.370,-1.344824,0.093585,7.948919,0.336735,-0.467214,-0.200354
2024-01-01 00:00:00.380,-0.911468,-0.52854,10.710615,0.193506,0.346953,-0.169726
2024-01-01 00:00:00.390,0.135096,-0.11343,10.707402,-0.00187,-0.214094,0.002368
2024-01-01 00:00:00.400,0.506773,0.335009,10.857585,0.054172,0.065382,-0.060669
2024-01-01 00:00:00.410,0.117601,0.086178,11.147891,0.073916,-0.020282,-0.196937
2024-01-01 00:00:00.420,-0.079364,-0.322006,12.227811,0.100825,-0.0196,-0.254106
2024-01-01 00:00:00.430,-0.206632,0.123095,9.419011,-0.456414,0.161972,-0.127008
2024-01-01 00:00:00.440,-1.014636,0.392321,9.93031,-0.075382,0.334252,0.029071
2024-01-01 00:00:00.450,-0.493993,-1.125418,9.352751,-0.37111,0.050299,-0.00096
2024-01-01 00:00:00.460,-0.316113,0.636332,9.812171,0.31957,0.131016,-0.075186
2024-01-01 00:00:00.470,0.72545,-0.184604,11.493095,-0.015212,0.065778,0.030283
2024-01-01 00:00:00.480,2.675808,0.233594,15.043174,-0.048335,0.203506,0.156004
2024-01-01 00:00:00.490,1.230114,0.657289,15.574567,0.224199,-0.092583,0.059119
2024-01-01 00:00:00.500,2.662403,-0.753049,18.032145,0.105581,0.215078,-0.018196
2024-01-01 00:00:00.510,2.175737,-0.389483,17.64,-0.282159,0.2221,0.139211
2024-01-01 00:00:00.520,1.975462,-0.158413,16.121281,-0.017726,0.216507,-0.143978
2024-01-01 00:00:00.530,0.419763,-0.430281,10.748133,-0.083792,-0.13203,-0.033738
2024-01-01 00:00:00.540,0.707523,0.95248,10.184655,-0.436133,-0.033668,-0.030163
2024-01-01 00:00:00.550,0.639091,-0.470368,11.457302,-0.172569,0.047893,-0.185543
2024-01-01 00:00:00.560,-0.575913,-0.304995,9.891812,-0.045885,-0.274168,-0.062981
2024-01-01 00:00:00.570,-0.212197,0.11221,10.936144,-0.028738,0.318984,-0.311244
2024-01-01 00:00:00.580,0.22733,-0.65998,12.710929,-0.370558,-0.002455,0.286827
2024-01-01 00:00:00.590,0.669468,-0.217229,10.466713,0.287916,0.056786,-0.140612
2024-01-01 00:00:00.600,-0.328833,0.174282,9.864162,-0.025526,-0.115401,0.237917
2024-01-01 00:00:00.610,-0.127408,-0.18274,10.603247,0.009388,-0.265376,0.005713
2024-01-01 00:00:00.620,-0.759222,-0.051269,9.408922,0.10016,-0.120806,0.08473
2024-01-01 00:00:00.630,-0.820897,-0.290603,12.431989,-0.197019,0.043841,-0.07332
2024-01-01 00:00:00.640,0.557596,-0.831444,10.007718,0.114089,0.134686,0.031189
2024-01-01 00:00:00.650,0.93072,0.176555,9.510319,-0.091769,0.032358,0.097573
2024-01-01 00:00:00.660,-0.049417,0.963458,8.892413,-0.224146,0.069345,0.099683
2024-01-01 00:00:00.670,0.688674,0.010102,11.014748,0.143362,-0.067405,0.116216
2024-01-01 00:00:00.680,0.248173,0.12367,10.762172,0.372918,0.09925,-0.05525
2024-01-01 00:00:00.690,-0.442713,0.380305,9.263905,0.181207,0.296567,-0.072054
2024-01-01 00:00:00.700,0.248008,-0.696862,10.442944,0.230744,0.140958,-0.239126
2024-01-01 00:00:00.710,1.055478,0.934681,8.153606,-0.130158,0.161908,0.078483
2024-01-01 00:00:00.720,-0.024586,0.111079,10.013098,-0.399405,0.058803,0.162357
2024-01-01 00:00:00.730,1.073737,0.895889,10.307126,0.372534,-0.300631,0.242397
2024-01-01 00:00:00.740,-1.7978,-0.402435,11.684648,0.513629,-0.208933,0.045776
2024-01-01 00:00:00.750,0.564031,0.998116,8.963641,0.385702,0.090975,-0.114972
2024-01-01 00:00:00.760,0.059736,0.42556,8.406369,-0.083946,-0.002188,-0.254564
2024-01-01 00:00:00.770,-0.205194,0.303619,8.82682,-0.288659,0.087969,0.15625
2024-01-01 00:00:00.780,0.062971,0.128479,8.342448,-0.266421,0.335285,-0.269441
2024-01-01 00:00:00.790,-1.363969,-0.136442,11.27765,-0.420933,0.145207,-0.051091
2024-01-01 00:00:00.800,-0.15075,0.659092,11.510406,-0.026845,0.251777,-0.033646
2024-01-01 00:00:00.810,0.245069,0.077058,10.161598,0.401419,0.018936,-0.010418
2024-01-01 00:00:00.820,1.014205,-1.079921,11.150982,-0.035416,-0.161443,0.00537
2024-01-01 00:00:00.830,-0.355663,-0.613335,9.957086,0.075581,-0.011573,0.020722
2024-01-01 00:00:00.840,-0.554829,-0.102029,9.705567,0.343899,-0.16095,-0.362304
2024-01-01 00:00:00.850,-0.344331,0.170189,9.444325,-0.101024,0.311659,0.002198
2024-01-01 00:00:00.860,0.628195,-0.031067,9.469191,0.508883,0.158078,-0.334436
2024-01-01 00:00:00.870,0.225605,0.669215,8.110514,0.498024,0.104102,0.109833
2024-01-01 00:00:00.880,-0.363548,-1.071155,10.100152,-0.032778,0.247189,-0.083269
2024-01-01 00:00:00.890,0.35223,0.07883,9.765713,-0.144384,-0.404011,-0.323556
2024-01-01 00:00:00.900,0.066619,-0.998071,10.628406,0.17431,0.117628,-0.122131
2024-01-01 00:00:00.910,0.664733,0.417082,9.912689,-0.086881,-0.262129,-0.085511
2024-01-01 00:00:00.920,-0.481784,-0.051858,9.631351,-0.289139,-0.001451,0.178605
2024-01-01 00:00:00.930,-0.224858,0.230366,8.85343,0.32031,-0.062342,0.029496
2024-01-01 00:00:00.940,-0.269084,-0.474272,9.889224,0.304112,0.132347,0.051667
2024-01-01 00:00:00.950,-1.004337,0.702426,10.620584,0.038878,0.045637,0.177183
2024-01-01 00:00:00.960,0.203213,0.571907,8.554614,-0.315716,0.269023,-0.014422
2024-01-01 00:00:00.970,0.179149,0.320366,9.906046,-0.307382,-0.120379,0.113128
2024-01-01 00:00:00.980,0.003509,-0.071105,10.065881,0.026807,0.141823,0.102579
2024-01-01 00:00:00.990,-0.160985,0.318342,9.021565,-0.124968,0.032445,-0.19297
2024-01-01 00:00:01.000,-0.971298,-0.388084,9.164534,-0.085273,-0.327058,0.220948
2024-01-01 00:00:01.010,-0.288668,0.4697,10.063211,0.255491,-0.183723,-0.213045
2024-01-01 00:00:01.020,-0.235188,0.905565,8.565504,0.183295,-0.029976,0.137605
2024-01-01 00:00:01.030,-0.550563,0.587765,10.194216,0.344536,0.222458,-0.227561
2024-01-01 00:00:01.040,-0.110682,-0.400552,8.826901,-0.247656,0.092745,0.090186
2024-01-01 00:00:01.050,0.27728,0.198418,10.977013,-0.085798,-0.2335,0.279287
2024-01-01 00:00:01.060,1.294395,-0.709935,12.376935,0.189745,-0.028063,-0.031947
2024-01-01 00:00:01.070,0.119804,0.314242,8.864889,0.11202,0.403561,-0.038453
2024-01-01 00:00:01.080,0.176744,0.247381,10.39656,0.383095,0.022245,0.091566
2024-01-01 00:00:01.090,-0.051089,-1.026529,9.012037,0.105134,-0.065465,-0.049409
2024-01-01 00:00:01.100,-1.316757,-0.637819,10.952968,0.462027,0.098348,0.272742
2024-01-01 00:00:01.110,-0.018195,-0.155443,8.420746,0.135004,0.152679,0.028829
2024-01-01 00:00:01.120,0.041333,-0.165172,10.337684,0.265542,-0.091234,-0.048025
2024-01-01 00:00:01.130,1.6904,-0.664003,8.851458,-0.080879,0.100515,-0.081043
2024-01-01 00:00:01.140,-0.132008,0.213549,9.582731,0.003572,-0.065778,-0.139942
2024-01-01 00:00:01.150,0.206937,0.138059,8.677934,0.227736,0.143866,-0.094163
2024-01-01 00:00:01.160,-0.023821,-0.106654,10.712941,0.403245,0.033939,-0.052601
2024-01-01 00:00:01.170,-0.802005,-0.41493,8.890996,0.182309,0.096394,-0.073146
2024-01-01 00:00:01.180,0.784262,0.57574,10.416057,-0.020793,-0.151837,-0.098726
2024-01-01 00:00:01.190,0.516014,0.908819,9.43218,0.344334,-0.164257,0.314826
2024-01-01 00:00:01.200,0.542846,-0.265475,9.684309,-0.547995,0.189099,-0.154514
2024-01-01 00:00:01.210,-0.624067,-0.33608,9.972236,-0.355559,-0.015879,0.021995
2024-01-01 00:00:01.220,0.962668,0.269673,8.973517,0.170409,0.057007,0.088878
2024-01-01 00:00:01.230,-0.96202,-0.196558,10.040983,0.003527,-0.061279,0.094516
2024-01-01 00:00:01.240,0.402731,-0.076529,11.490307,0.151378,0.179745,-0.008791
2024-01-01 00:00:01.250,1.5032,0.40607,8.955652,0.016102,-0.121562,-0.036105
2024-01-01 00:00:01.260,-0.679756,-1.048236,11.096648,0.142736,-0.02712,0.067732
2024-01-01 00:00:01.270,-0.388622,0.723748,11.454911,-0.203601,0.157199,0.039978
2024-01-01 00:00:01.280,0.068386,0.039902,8.913862,0.142622,0.234594,-0.038844
2024-01-01 00:00:01.290,-0.34551,-0.22591,8.21235,0.248604,-0.104752,-0.234282
2024-01-01 00:00:01.300,-1.064143,-0.04899,10.141553,0.305138,0.391937,-0.070189
2024-01-01 00:00:01.310,0.047051,-0.020626,9.208947,0.503389,0.062648,-0.171983
2024-01-01 00:00:01.320,-0.729006,-0.95043,11.861726,0.061025,-0.208586,-0.100074
2024-01-01 00:00:01.330,0.325003,0.820721,9.848219,0.068478,0.07381,0.004983
2024-01-01 00:00:01.340,-0.630955,0.022688,8.929185,-0.380793,-0.0766,0.05381
2024-01-01 00:00:01.350,1.063642,0.243208,8.550419,-0.132853,0.086814,0.267068
2024-01-01 00:00:01.360,-0.537508,0.522401,11.006716,-0.048271,-0.008571,-0.080611
2024-01-01 00:00:01.370,-0.221015,-0.560618,9.18284,0.26258,0.014855,0.116194
2024-01-01 00:00:01.380,0.558276,0.259936,9.858124,-0.15275,-0.182319,0.045894
2024-01-01 00:00:01.390,-0.844681,-0.146935,10.859471,0.199085,0.198012,0.1944
2024-01-01 00:00:01.400,0.156094,0.464877,9.278284,-0.000405,-0.231225,0.086434
2024-01-01 00:00:01.410,0.897027,-1.167848,9.75957,-0.044292,-0.221753,-0.151272
2024-01-01 00:00:01.420,-1.103135,-0.054403,9.791808,0.062223,0.073472,-0.258457
2024-01-01 00:00:01.430,0.126705,-0.330949,10.56029,-0.097789,0.320569,0.046689
2024-01-01 00:00:01.440,0.178345,0.237312,10.458637,-0.107259,-0.070519,-0.079268
2024-01-01 00:00:01.450,0.536526,0.258054,9.568315,-0.426196,0.140194,-0.147047
2024-01-01 00:00:01.460,-0.848857,-0.388487,9.879887,-0.061989,0.214668,-0.190137
2024-01-01 00:00:01.470,-0.906163,-0.390983,9.401787,-0.119992,0.162937,0.024146
2024-01-01 00:00:01.480,0.358182,-0.060755,8.187582,-0.128995,-0.062242,0.226156
2024-01-01 00:00:01.490,0.203806,-0.492257,10.092846,0.104218,-0.218209,-0.061301
2024-01-01 00:00:01.500,0.171901,0.462249,11.887627,0.164658,-0.44151,0.088541
2024-01-01 00:00:01.510,0.23775,-0.202695,8.839676,0.058049,-0.052568,-0.01534
2024-01-01 00:00:01.520,-0.466667,-1.595937,8.961213,0.248854,0.235617,-0.193407
2024-01-01 00:00:01.530,0.159384,-0.205777,8.853941,0.14389,-0.224833,0.110222
2024-01-01 00:00:01.540,0.201121,-0.570161,10.605602,-0.073764,0.140042,-0.164204
2024-01-01 00:00:01.550,-0.490224,-0.89557,10.302437,-0.115714,-0.190031,0.003244
2024-01-01 00:00:01.560,1.280388,-0.679347,9.635926,0.078206,0.021215,-0.051228
2024-01-01 00:00:01.570,0.325168,0.060065,8.802015,0.143442,0.141558,0.133962
2024-01-01 00:00:01.580,-0.817532,0.729424,9.91143,0.349461,-0.131899,-0.158723
2024-01-01 00:00:01.590,0.45056,0.171938,8.092045,0.297793,0.034097,0.05863
2024-01-01 00:00:01.600,-0.668875,-0.33297,9.967482,-0.135368,-0.083018,-0.12597
2024-01-01 00:00:01.610,0.540137,0.250291,10.766934,-0.025502,0.14103,-0.076666
2024-01-01 00:00:01.620,0.795086,-0.252041,8.436183,0.167754,0.047063,-0.54528
2024-01-01 00:00:01.630,-0.563193,-0.381336,8.127295,0.266999,0.011302,0.313815
2024-01-01 00:00:01.640,0.661117,-0.633745,11.544223,0.234742,0.31167,0.082584
2024-01-01 00:00:01.650,0.283271,-0.961754,9.138288,-0.015969,0.132461,-0.115102
2024-01-01 00:00:01.660,0.564139,-0.214068,11.057271,-0.313506,-0.13807,-0.168698
2024-01-01 00:00:01.670,1.301674,0.086771,9.640911,-0.249734,-0.017173,-0.074347
2024-01-01 00:00:01.680,-0.168398,-0.053046,9.632174,0.068158,-0.01518,0.107532
2024-01-01 00:00:01.690,-0.517251,-0.228366,10.291377,0.085556,0.016064,-0.283813
2024-01-01 00:00:01.700,-0.610429,-0.519215,8.839369,-0.27467,0.504902,-0.021238
2024-01-01 00:00:01.710,-0.55985,0.333927,9.955482,0.011142,0.07417,0.265596
2024-01-01 00:00:01.720,-0.052911,-0.723105,9.391125,0.157806,-0.407181,-0.170092
2024-01-01 00:00:01.730,0.234116,0.426039,8.360098,-0.287807,-0.10856,0.012058
2024-01-01 00:00:01.740,0.189879,-0.550217,10.180555,0.276249,-0.386474,0.330496
2024-01-01 00:00:01.750,0.567655,-0.413087,9.520888,-0.094383,-0.06596,0.094823
2024-01-01 00:00:01.760,0.008923,-0.805265,9.637587,0.314403,-0.397462,0.018889
2024-01-01 00:00:01.770,0.997488,-0.27527,8.481243,-0.133363,-0.174318,0.075995
2024-01-01 00:00:01.780,-0.181621,0.535447,11.557358,-0.256656,-0.304144,-0.06013
2024-01-01 00:00:01.790,1.866716,0.28308,10.772632,-0.114534,0.076832,0.194945
2024-01-01 00:00:01.800,0.429364,0.537154,10.868643,-0.023787,0.000108,-0.0599
2024-01-01 00:00:01.810,-0.588224,0.286656,9.474622,-0.09712,0.060592,-0.293877
2024-01-01 00:00:01.820,-0.7349,-0.605915,7.911357,-0.054,-0.02091,-0.058695
2024-01-01 00:00:01.830,0.331097,-0.181603,11.954303,0.083491,-0.27886,-0.14501
2024-01-01 00:00:01.840,-0.153351,-0.428329,9.742915,-0.042795,0.102704,-0.042179
2024-01-01 00:00:01.850,0.489983,0.730486,8.987818,-0.016528,0.384445,-0.038863
2024-01-01 00:00:01.860,0.324759,-0.657037,10.267648,-0.427307,0.081843,0.179613
2024-01-01 00:00:01.870,-0.049979,0.49064,11.091499,0.097925,-0.085185,0.104294
2024-01-01 00:00:01.880,-0.581112,0.490232,9.78469,-0.022301,-0.285613,0.03949
2024-01-01 00:00:01.890,-1.039564,1.004461,11.213876,0.402573,-0.181613,-0.000442
2024-01-01 00:00:01.900,-0.306421,-0.224918,10.999134,-0.234891,0.090608,-0.158829
2024-01-01 00:00:01.910,0.587704,0.391065,8.628133,-0.452074,0.214624,-0.327176
2024-01-01 00:00:01.920,0.146922,1.252627,9.070178,0.154517,0.052173,0.016974
2024-01-01 00:00:01.930,-0.854888,-0.339085,10.861376,0.086632,0.159977,0.119196
2024-01-01 00:00:01.940,0.118845,-0.842737,6.831551,-0.252108,0.141536,-0.01625
2024-01-01 00:00:01.950,0.264424,-1.032126,9.645898,-0.382437,0.101307,-0.080228
2024-01-01 00:00:01.960,-0.606547,0.391279,8.238947,0.384349,-0.131695,0.069675
2024-01-01 00:00:01.970,0.105494,-1.033849,9.286744,0.353528,0.034785,-0.0125
2024-01-01 00:00:01.980,0.039946,-0.204403,9.481896,-0.621864,-0.169676,0.252862
2024-01-01 00:00:01.990,-0.784363,0.240085,9.416648,-0.114556,0.003486,0.184909
2024-01-01 00:00:02.000,0.245532,0.101661,9.203617,0.416048,0.066173,0.143926
2024-01-01 00:00:02.010,2.824838,0.233569,15.315336,-0.119016,0.335757,0.11366
2024-01-01 00:00:02.020,3.183244,0.122037,19.036519,-0.122653,-0.261946,-0.193525
2024-01-01 00:00:02.030,3.163172,0.702097,18.570473,-0.07069,0.096302,0.099449
2024-01-01 00:00:02.040,1.494574,-0.522822,15.244052,-0.280224,0.296247,0.056449
2024-01-01 00:00:02.050,1.796418,-0.37167,18.257164,-0.426194,0.15177,0.090964
2024-01-01 00:00:02.060,0.353443,-0.42419,9.371387,0.263137,0.166589,0.073891
2024-01-01 00:00:02.070,0.352586,0.455775,9.951848,-0.460734,0.117539,0.067914
2024-01-01 00:00:02.080,0.353451,0.494319,9.740525,0.061818,0.259667,0.40513
2024-01-01 00:00:02.090,2.643937,0.247723,9.085596,0.221645,-0.217496,-0.011428
2024-01-01 00:00:02.100,0.391774,0.649738,10.89027,-0.362807,-0.277185,0.140451
2024-01-01 00:00:02.110,0.779282,-0.646744,9.948223,-0.231067,-0.001267,-0.070648
2024-01-01 00:00:02.120,0.654684,0.915306,9.286747,0.303295,-0.432232,0.118596
2024-01-01 00:00:02.130,0.447017,0.836258,8.377561,0.133223,0.246129,0.140898
2024-01-01 00:00:02.140,-0.216354,0.403856,8.828833,-0.154321,0.244143,0.054664
2024-01-01 00:00:02.150,0.520843,0.978208,8.007765,0.300562,-0.08667,0.250387
2024-01-01 00:00:02.160,-0.530351,-0.909486,9.823421,0.301634,-0.074154,-0.132641
2024-01-01 00:00:02.170,-0.162517,-0.287922,8.496061,0.067263,-0.014469,-0.073083
2024-01-01 00:00:02.180,-0.333081,-0.403682,9.518415,-0.22504,0.010404,0.031857
2024-01-01 00:00:02.190,0.056186,0.396092,11.314372,-0.103362,0.025435,0.132121
2024-01-01 00:00:02.200,1.588434,-0.576527,11.126831,0.071597,0.111646,0.026914
2024-01-01 00:00:02.210,-1.281411,0.415865,9.77456,-0.047149,-0.034525,0.192864
2024-01-01 00:00:02.220,0.470946,0.752424,9.714381,0.234739,0.188639,-0.099253
2024-01-01 00:00:02.230,-1.106726,0.381666,11.874102,-0.382444,0.08919,-0.171087
2024-01-01 00:00:02.240,-0.323863,0.155779,10.38179,-0.373566,-0.121393,0.046219
2024-01-01 00:00:02.250,0.747292,-0.542342,9.450069,0.045218,0.267023,-0.011577
2024-01-01 00:00:02.260,0.044112,-0.464921,8.244232,-0.122886,-0.271651,0.08143
2024-01-01 00:00:02.270,-0.739602,0.686041,10.242473,-0.156762,-0.018433,-0.00411
2024-01-01 00:00:02.280,-0.490877,0.427863,10.720598,-0.442014,0.193383,-0.051003
2024-01-01 00:00:02.290,0.466374,-0.021422,9.116447,0.004886,-0.144615,-0.011241
2024-01-01 00:00:02.300,-0.501214,-0.229432,10.129741,-0.013189,0.061911,0.004327
2024-01-01 00:00:02.310,0.148545,-1.112169,9.410797,0.16337,0.108668,-0.045747
2024-01-01 00:00:02.320,2.471274,-0.587898,16.317932,0.017227,-0.172105,-0.03047
2024-01-01 00:00:02.330,1.992839,1.049369,13.788371,-0.033151,-0.014496,-0.060539
2024-01-01 00:00:02.340,3.911282,-0.70297,16.276484,0.29425,-0.031301,0.1285
2024-01-01 00:00:02.350,2.875027,0.104024,17.584367,-0.328117,-0.110348,0.029103
2024-01-01 00:00:02.360,1.050246,0.553087,15.82672,0.134097,0.460335,0.338513
2024-01-01 00:00:02.370,0.127954,-0.688953,9.867674,-0.417787,-0.152621,0.024106
2024-01-01 00:00:02.380,-0.454151,0.101406,8.979966,-0.20959,0.200986,-0.082629
2024-01-01 00:00:02.390,0.584982,0.514916,10.205765,-0.303164,-0.07856,0.400601
2024-01-01 00:00:02.400,-0.543867,0.006862,9.572258,0.195486,-0.217327,0.062044
2024-01-01 00:00:02.410,-0.078738,1.574753,8.778713,-0.016353,0.020563,0.148519
2024-01-01 00:00:02.420,0.346548,-0.916061,11.273142,-0.003376,0.129819,0.088815
2024-01-01 00:00:02.430,0.594125,0.581242,10.829967,-0.276683,0.184102,0.093452
2024-01-01 00:00:02.440,-0.823703,-0.094868,9.145812,-0.074923,0.312453,0.080348
2024-01-01 00:00:02.450,-0.229551,0.423784,10.356572,-0.190866,0.589049,-0.165313
2024-01-01 00:00:02.460,-0.325931,0.242278,10.400078,0.095864,0.050103,0.055129
2024-01-01 00:00:02.470,-0.448347,-0.402503,10.515247,-0.247773,-0.132618,-0.198729
2024-01-01 00:00:02.480,1.211543,0.125719,7.949707,0.332449,0.090575,-0.026154
2024-01-01 00:00:02.490,0.277919,-1.019988,10.915254,-0.418895,-0.053243,-0.108843
2024-01-01 00:00:02.500,-0.865282,0.331183,9.184471,-0.20163,0.185193,0.053621
2024-01-01 00:00:02.510,0.629883,0.163689,9.417105,0.4193,-0.259433,0.050119
2024-01-01 00:00:02.520,1.45633,0.350624,12.706394,-0.108785,0.473667,0.072172
2024-01-01 00:00:02.530,0.708529,0.580907,10.141457,-0.32872,0.17121,0.043094
2024-01-01 00:00:02.540,-1.042668,0.201823,9.385818,0.054768,-0.336801,-0.091024
2024-01-01 00:00:02.550,-0.332306,0.081301,7.388587,-0.118848,-0.141806,-0.039151
2024-01-01 00:00:02.560,0.869418,-0.483707,11.335961,-0.208968,0.163216,0.138059
2024-01-01 00:00:02.570,-0.485638,-0.391009,8.33296,-0.273968,0.235269,0.160179
2024-01-01 00:00:02.580,0.304571,0.651517,8.708224,0.692093,-0.254448,-0.172017
2024-01-01 00:00:02.590,0.531593,0.788548,9.446175,-0.062888,0.142605,-0.229639
2024-01-01 00:00:02.600,-0.636106,-0.130723,11.36522,-0.481392,-0.389468,-0.109033
2024-01-01 00:00:02.610,-0.040849,0.025256,10.659018,0.373427,-0.017867,0.156781
2024-01-01 00:00:02.620,-2.22432,-0.496633,9.636694,0.152768,0.222409,0.182233
2024-01-01 00:00:02.630,-0.702986,0.643844,10.148505,-0.191617,-0.110303,-0.138707
2024-01-01 00:00:02.640,-0.173325,0.365314,9.150777,-0.23328,-0.301384,0.046096
2024-01-01 00:00:02.650,-0.856291,1.065728,9.96334,0.168368,0.029243,0.275165
2024-01-01 00:00:02.660,1.120242,-0.482199,9.890524,-0.06173,-0.120944,0.062297
2024-01-01 00:00:02.670,-0.981435,-0.207526,10.873709,-0.481494,0.125912,0.213225
2024-01-01 00:00:02.680,-0.301981,0.127064,10.871962,0.44681,-0.177065,0.149809
2024-01-01 00:00:02.690,0.089721,0.354923,10.352387,-0.108498,-0.154527,-0.13653
2024-01-01 00:00:02.700,0.989074,-0.118402,9.412142,0.373893,-0.4042,-0.028497
2024-01-01 00:00:02.710,-0.98536,-0.479256,10.624521,0.319609,0.033989,0.005213
2024-01-01 00:00:02.720,0.798221,0.483893,9.709019,-0.250252,-0.032181,0.01562
2024-01-01 00:00:02.730,0.007022,0.395903,8.622058,0.258297,-0.237677,0.137449
2024-01-01 00:00:02.740,-0.67356,-0.503034,9.36719,-0.162861,0.03876,0.061303
2024-01-01 00:00:02.750,0.317119,0.744138,9.902811,-0.466675,0.205414,-0.44043
2024-01-01 00:00:02.760,0.136605,0.642439,10.809417,-0.10615,-0.043114,-0.196926
2024-01-01 00:00:02.770,-0.411899,0.073729,9.608486,0.099409,0.053633,-0.328107
2024-01-01 00:00:02.780,0.047902,0.043699,8.4823,-0.115684,0.054662,0.026305
2024-01-01 00:00:02.790,-0.264421,0.304178,9.872302,-0.076762,-0.240866,0.036073
2024-01-01 00:00:02.800,0.077901,-0.473075,9.934575,0.285892,0.411317,0.042484
2024-01-01 00:00:02.810,0.454387,0.016487,10.01405,0.026623,-0.09417,-0.143839
2024-01-01 00:00:02.820,1.088404,-1.181659,10.820019,-0.210825,0.131223,0.101122
2024-01-01 00:00:02.830,-0.849451,0.481174,10.928778,0.175508,0.153843,0.107439
2024-01-01 00:00:02.840,1.463794,-0.85726,9.157556,0.049419,-0.027919,-0.188272
2024-01-01 00:00:02.850,-1.33962,0.825377,9.133474,-0.630401,0.121359,-0.219906
2024-01-01 00:00:02.860,-0.104163,-0.181236,8.667862,0.107088,0.049164,-2e-05
2024-01-01 00:00:02.870,0.403733,-0.116205,10.5773,0.097957,-0.283528,0.268767
2024-01-01 00:00:02.880,0.192831,-0.344626,11.400804,0.00503,-0.066455,0.254961
2024-01-01 00:00:02.890,-0.427328,-0.158133,9.46404,0.222925,-0.12251,0.084511
2024-01-01 00:00:02.900,-0.142824,0.778774,9.544909,-0.168098,-0.092349,-0.1095
2024-01-01 00:00:02.910,-0.338322,-1.365807,11.420527,0.084125,-0.260801,0.133026
2024-01-01 00:00:02.920,-0.404452,0.701054,10.365103,-0.39174,0.225287,-0.067864
2024-01-01 00:00:02.930,0.583039,0.185575,10.288987,0.101773,0.320399,-0.115126
2024-01-01 00:00:02.940,0.245002,-0.662655,8.502374,0.488265,0.195601,-0.321595
2024-01-01 00:00:02.950,-0.475509,-0.590347,10.555243,-0.248714,0.254106,0.015357
2024-01-01 00:00:02.960,0.61735,0.92034,8.789808,-0.189951,-0.068927,-0.09448
2024-01-01 00:00:02.970,0.210884,-0.519083,8.564846,-0.177504,-0.127251,0.014465
2024-01-01 00:00:02.980,0.557827,-0.633189,9.429245,0.0325,-0.155717,-0.344904
2024-01-01 00:00:02.990,0.432083,0.624386,9.1668,-0.265759,0.128813,0.025474
2024-01-01 00:00:03.000,-0.568898,0.185866,9.566684,0.105312,0.045413,-0.364668
2024-01-01 00:00:03.010,-0.384424,-0.514921,8.227802,0.21171,-0.015444,0.163191
2024-01-01 00:00:03.020,0.51283,0.118927,10.86278,0.133587,0.25903,0.078284
2024-01-01 00:00:03.030,0.418867,-0.563138,11.0482,-0.442104,0.080988,-0.0418
2024-01-01 00:00:03.040,-0.014344,0.604351,7.671818,0.248792,-0.167732,0.084408
2024-01-01 00:00:03.050,0.080516,0.582693,10.884347,0.234342,-0.136182,-0.146711
2024-01-01 00:00:03.060,0.876798,0.292071,8.92004,0.20754,0.136399,0.010856
2024-01-01 00:00:03.070,-0.405966,0.198552,10.750959,0.093211,0.208347,0.119216
2024-01-01 00:00:03.080,0.375446,0.966892,9.734846,0.055047,0.110336,-0.464143
2024-01-01 00:00:03.090,-0.138755,-0.000172,9.841596,0.258097,0.379378,-0.067084
2024-01-01 00:00:03.100,-0.149384,-0.648849,9.606763,0.480878,0.327001,-0.003397
2024-01-01 00:00:03.110,0.754036,0.246761,11.140918,-0.23826,0.088207,-0.029444
2024-01-01 00:00:03.120,0.566442,1.14524,8.448932,0.269531,-0.167716,0.218565
2024-01-01 00:00:03.130,0.558271,-0.557103,10.477409,-0.021554,-0.261998,-0.168585
2024-01-01 00:00:03.140,0.895885,-0.198443,11.019261,-0.032418,-0.077476,-0.093174
2024-01-01 00:00:03.150,0.014414,0.228629,10.596541,-0.384133,0.150643,-0.28738
2024-01-01 00:00:03.160,0.46799,-0.029594,12.362519,-0.071197,0.365329,0.226543
2024-01-01 00:00:03.170,-0.212921,-0.539285,9.229216,-0.249316,0.083489,-0.036944
2024-01-01 00:00:03.180,0.222459,0.6159,10.861121,-0.115964,0.233745,-0.065761
2024-01-01 00:00:03.190,-0.089311,1.273702,9.693512,-0.274547,-0.049061,-0.007872
2024-01-01 00:00:03.200,0.066563,0.107676,11.16428,-0.112227,0.124554,0.095435
2024-01-01 00:00:03.210,0.408427,-0.496333,9.801557,-0.101528,0.164671,0.052105
2024-01-01 00:00:03.220,-0.561504,-0.850379,9.384112,0.024189,-0.395919,0.397183
2024-01-01 00:00:03.230,1.435901,0.141629,11.244067,-0.403687,-0.082688,0.06809
2024-01-01 00:00:03.240,-0.690379,0.606029,9.270265,-0.36138,0.18994,-0.069787
2024-01-01 00:00:03.250,-0.833237,0.260867,8.258827,0.090479,0.054894,-0.084204
2024-01-01 00:00:03.260,0.794754,-0.00132,9.242502,-0.19936,-0.239303,-0.058914
2024-01-01 00:00:03.270,0.543279,-0.32351,10.489698,0.268632,-0.486024,-0.225276
2024-01-01 00:00:03.280,0.428302,-0.599598,11.338459,0.056317,-0.073156,0.00598
2024-01-01 00:00:03.290,0.431202,0.458278,9.93202,0.151691,-0.014317,0.11752
2024-01-01 00:00:03.300,-0.008404,0.501661,11.25738,0.352673,-0.176785,-0.092005
2024-01-01 00:00:03.310,-0.615741,-0.848606,8.318724,-0.077428,0.028617,-0.121107
2024-01-01 00:00:03.320,0.052021,0.872822,9.323297,-0.143622,0.101277,0.227392
2024-01-01 00:00:03.330,-0.464702,0.315165,9.493145,0.217926,0.134137,-0.213972
2024-01-01 00:00:03.340,0.669176,0.768377,9.684214,0.127378,-0.471184,-0.310173
2024-01-01 00:00:03.350,-0.100918,-0.736828,9.902336,-0.046833,-0.262857,-0.172935
2024-01-01 00:00:03.360,-0.566497,-0.749837,10.56862,0.347864,-0.060925,-0.231065
2024-01-01 00:00:03.370,-0.220551,-0.081784,9.321602,-0.053061,0.114435,0.057934
2024-01-01 00:00:03.380,0.283374,0.276029,9.962653,0.008193,0.097847,-0.054106
2024-01-01 00:00:03.390,-0.386856,0.986202,9.760455,0.005306,0.094374,-0.032953
2024-01-01 00:00:03.400,-0.564249,0.387637,8.793373,-0.233648,-0.076684,0.17294
2024-01-01 00:00:03.410,0.16723,-0.133232,9.685194,0.019396,-0.065527,-0.1037
2024-01-01 00:00:03.420,0.168108,-0.563477,9.652262,0.34919,-0.145666,0.116263
2024-01-01 00:00:03.430,-0.34789,0.67527,9.628742,0.111242,0.153639,0.226698
2024-01-01 00:00:03.440,-0.32325,-0.529623,9.844872,0.007766,-0.184098,-0.068349
2024-01-01 00:00:03.450,0.159244,0.894029,9.89309,-0.040442,0.170007,0.110553
2024-01-01 00:00:03.460,-0.993748,-0.156127,9.33534,0.082717,0.041571,-0.036273
2024-01-01 00:00:03.470,-0.965872,0.87323,11.207441,0.187442,-0.009009,0.138615
2024-01-01 00:00:03.480,-0.493032,0.372733,8.52591,0.15231,-0.131342,-0.235723
2024-01-01 00:00:03.490,-0.146478,-0.075211,9.018375,-0.082966,-0.271108,-0.246827
2024-01-01 00:00:03.500,0.21336,-0.285149,12.8624,0.081195,-0.129531,-0.05869
2024-01-01 00:00:03.510,1.012463,-0.187158,8.670285,0.119985,-0.066001,-0.133339
2024-01-01 00:00:03.520,0.588569,0.235146,8.323577,-0.251799,-0.473805,-0.077506
2024-01-01 00:00:03.530,-0.109758,0.042359,10.616455,0.042058,-0.039471,-0.032929
2024-01-01 00:00:03.540,-0.01305,-0.326002,7.529322,-0.540326,0.184871,0.108002
2024-01-01 00:00:03.550,-0.687986,-0.090932,9.551669,0.120633,0.113444,-0.061149
2024-01-01 00:00:03.560,-0.012705,0.043139,12.166116,0.165086,-0.099241,-0.123579
2024-01-01 00:00:03.570,-0.198092,-1.168675,8.11366,0.186887,0.009387,-0.052727
2024-01-01 00:00:03.580,0.221466,0.251534,7.633803,-0.098762,-0.111233,-0.115372
2024-01-01 00:00:03.590,-0.567687,-0.537867,8.163899,0.077262,0.029752,-0.140101
2024-01-01 00:00:03.600,0.356402,-0.633179,10.796399,0.355988,0.308022,-0.241953
2024-01-01 00:00:03.610,1.051842,-0.926352,11.045005,0.353442,0.1937,0.010422
2024-01-01 00:00:03.620,-0.074637,-0.984847,9.247178,-0.007293,0.104159,-0.085306
2024-01-01 00:00:03.630,0.275675,-0.744141,10.560167,0.03483,-0.098577,0.144942
2024-01-01 00:00:03.640,0.473611,-0.389253,11.3365,0.277728,0.149988,-0.217109
2024-01-01 00:00:03.650,-0.275338,1.072339,11.772506,-0.375201,-0.337375,-0.081313
2024-01-01 00:00:03.660,0.153783,-0.288708,9.539524,-0.080769,-0.050471,0.271936
2024-01-01 00:00:03.670,0.008642,0.097585,7.282984,0.333893,0.116742,-0.140941
2024-01-01 00:00:03.680,0.06703,0.219864,8.908675,0.2438,0.148084,-0.03548
2024-01-01 00:00:03.690,-0.530478,0.071955,9.341369,0.092316,0.133977,-0.182377
2024-01-01 00:00:03.700,0.01682,-0.042516,9.525685,-0.376458,0.058966,-0.202264
2024-01-01 00:00:03.710,0.341751,-0.656216,9.60373,-0.012478,-0.039145,0.232097
2024-01-01 00:00:03.720,0.995847,0.796559,11.038546,-0.147479,0.107595,0.025656
2024-01-01 00:00:03.730,0.6583,0.992151,11.209322,0.08276,-0.190572,0.020052
2024-01-01 00:00:03.740,1.477621,-0.92378,9.621502,-0.202337,-0.168935,-0.254447
2024-01-01 00:00:03.750,-0.526592,-0.562192,11.016136,-0.256431,0.012347,0.053811
2024-01-01 00:00:03.760,0.59863,-0.153616,10.202712,-0.516216,0.03464,0.173613
2024-01-01 00:00:03.770,0.125818,-0.529531,9.880828,0.305451,-0.365123,0.172422
2024-01-01 00:00:03.780,1.502752,0.277775,10.805385,-0.099943,0.091029,0.10025
2024-01-01 00:00:03.790,-0.554695,-0.399821,9.889333,0.039286,0.154546,-0.169423
2024-01-01 00:00:03.800,-0.576259,1.188616,12.069477,-0.00056,-0.015457,0.046969
2024-01-01 00:00:03.810,-0.411333,0.653611,8.230625,-0.266858,0.474893,0.100138
2024-01-01 00:00:03.820,-1.457523,0.116703,9.244342,-0.314766,-0.136587,-0.269167
2024-01-01 00:00:03.830,-0.360799,0.563815,9.671082,-0.251329,-0.072217,-0.168192
2024-01-01 00:00:03.840,-0.520955,0.607139,10.292519,-0.180792,-0.079013,0.133224
2024-01-01 00:00:03.850,0.103208,-0.309607,11.202221,0.091652,-0.015238,0.131407
2024-01-01 00:00:03.860,2.67453,-0.448103,16.49321,-0.198929,-0.065745,-0.232287
2024-01-01 00:00:03.870,3.727522,0.042901,14.958392,0.436623,-0.281362,0.119253
2024-01-01 00:00:03.880,3.092228,0.473038,17.44508,0.256788,-0.10931,0.014296
2024-01-01 00:00:03.890,2.0441,0.076344,17.348945,0.20209,-0.019524,0.117151
2024-01-01 00:00:03.900,1.823463,-0.865771,14.387839,-0.029915,0.245714,-0.095178
2024-01-01 00:00:03.910,0.33758,-0.440751,9.805823,0.37857,0.440449,0.096778
2024-01-01 00:00:03.920,-0.90601,-0.040611,8.064024,-0.054501,0.267095,0.126574
2024-01-01 00:00:03.930,1.256839,-0.04154,9.080213,-0.007815,-0.155076,-0.0527
2024-01-01 00:00:03.940,0.809391,1.082926,8.818716,0.042494,-0.139162,0.002663
2024-01-01 00:00:03.950,-0.321972,-0.760907,10.698573,0.175456,-0.031866,-0.097278
2024-01-01 00:00:03.960,-1.175639,0.277568,9.93828,0.159227,0.356912,0.247746
2024-01-01 00:00:03.970,0.929095,0.817523,8.398421,-0.118781,-0.033085,-0.018041
2024-01-01 00:00:03.980,-0.078603,1.247026,10.776312,-0.133248,-0.265501,-0.138304
2024-01-01 00:00:03.990,0.849451,-0.222014,8.235681,0.159976,-0.100235,-0.107374
2024-01-01 00:00:04.000,-1.094176,0.269795,10.172465,0.178809,0.151411,0.019016
2024-01-01 00:00:04.010,-0.411321,0.312798,8.916216,-0.098338,0.137988,0.113
2024-01-01 00:00:04.020,0.003598,0.107319,9.408487,-0.396797,-0.040043,-0.200374
2024-01-01 00:00:04.030,0.03224,-0.054266,10.363689,-0.051829,0.136683,0.277149
2024-01-01 00:00:04.040,-0.308857,0.23935,10.382551,0.155881,-0.454634,0.046301
2024-01-01 00:00:04.050,0.427431,-1.390203,11.277992,0.451354,0.020766,0.069968
2024-01-01 00:00:04.060,-0.732655,0.374456,9.719685,-0.299489,0.172137,-0.014578
2024-01-01 00:00:04.070,-0.097708,0.069272,10.146483,-0.106643,-0.166573,0.002889
2024-01-01 00:00:04.080,0.082553,-0.122139,9.329364,-0.097351,-0.167268,-0.022242
2024-01-01 00:00:04.090,0.353034,1.123727,10.009825,0.338951,-0.37329,0.152669
2024-01-01 00:00:04.100,0.488346,-0.370539,10.292556,-0.008735,0.317979,-0.001189
2024-01-01 00:00:04.110,-0.771786,-0.221289,9.702056,-0.226832,-0.144031,0.115058
2024-01-01 00:00:04.120,-1.052786,1.093363,7.829482,0.139674,0.048209,-0.065077
2024-01-01 00:00:04.130,0.876806,-0.456802,10.173955,-0.10116,0.120783,0.029346
2024-01-01 00:00:04.140,0.22805,-0.302013,10.210289,-0.306097,0.302414,-0.120588
2024-01-01 00:00:04.150,-0.513649,-0.080717,9.06317,-0.223193,-0.03078,0.182479
2024-01-01 00:00:04.160,1.064478,0.461563,8.399743,0.43351,-0.107886,-0.125062
2024-01-01 00:00:04.170,2.519382,0.114084,18.140515,0.096052,0.034614,-0.048747
2024-01-01 00:00:04.180,3.249293,-0.709651,17.059607,0.02694,0.256816,-0.047244
2024-01-01 00:00:04.190,2.486335,-0.292161,16.268469,-0.062473,-0.034035,-0.053093
2024-01-01 00:00:04.200,3.854188,-0.333438,15.271538,0.073037,-0.190974,0.108374
2024-01-01 00:00:04.210,3.644603,-0.042394,15.617647,0.070059,-0.308152,-0.047499
2024-01-01 00:00:04.220,-0.170852,0.233788,11.240244,0.073042,-0.244259,0.209089
2024-01-01 00:00:04.230,0.666741,0.229595,9.961153,0.028711,0.172878,-0.122771
2024-01-01 00:00:04.240,0.442889,-0.97503,9.205455,0.2172,-0.064125,0.025407
2024-01-01 00:00:04.250,0.939223,0.584104,10.369639,0.005776,-0.121504,-0.116368
2024-01-01 00:00:04.260,-0.662179,0.13866,8.915791,-0.244485,-0.143193,0.063146
2024-01-01 00:00:04.270,0.470803,0.760108,11.457926,-0.153106,0.017009,-0.002392
2024-01-01 00:00:04.280,0.726344,0.243865,11.295375,-0.494755,-0.047891,-0.023259
2024-01-01 00:00:04.290,-1.206935,0.604626,9.297702,0.506704,-0.054626,0.178271
2024-01-01 00:00:04.300,-0.812011,0.256133,9.11972,0.215689,0.269865,-0.098151
2024-01-01 00:00:04.310,-1.399423,0.739078,6.93529,-0.207518,0.307603,0.087977
2024-01-01 00:00:04.320,-0.18488,0.286716,8.183224,-0.070461,-0.322004,-0.115344
2024-01-01 00:00:04.330,0.492413,-0.053755,8.339262,-0.159219,0.065519,0.016903
2024-01-01 00:00:04.340,1.030993,1.247567,9.958439,0.385637,-0.155372,-0.179336
2024-01-01 00:00:04.350,0.050848,0.488081,9.451795,-0.354969,-0.04965,-0.099378
2024-01-01 00:00:04.360,1.117637,0.314986,8.332822,0.028619,0.061856,-0.012321
2024-01-01 00:00:04.370,-0.947095,-0.700691,9.501282,-0.027132,-0.042544,0.272197
2024-01-01 00:00:04.380,-1.168946,-0.707281,10.36486,0.20671,0.046092,0.015121
2024-01-01 00:00:04.390,-0.03812,0.160701,10.389568,-0.026002,0.134594,0.2482
2024-01-01 00:00:04.400,0.263565,0.079891,7.724162,-0.439552,0.058915,0.033048
2024-01-01 00:00:04.410,-0.022437,-0.337153,9.669167,-0.062779,-0.129367,-0.058063
2024-01-01 00:00:04.420,-1.418782,0.0774,8.291092,-0.243041,-0.12584,0.230903
2024-01-01 00:00:04.430,-0.061159,0.872156,10.800098,0.019895,-0.287941,0.065553
2024-01-01 00:00:04.440,-0.895192,0.381776,10.670993,0.358544,-0.170784,-0.096408
2024-01-01 00:00:04.450,0.459563,-0.626414,8.823966,-0.434856,0.392414,0.070586
2024-01-01 00:00:04.460,0.251578,-0.061218,8.968882,-0.200056,-0.158401,-0.043889
2024-01-01 00:00:04.470,-0.644993,-0.441927,9.303529,-0.138173,-0.238676,-0.298355
2024-01-01 00:00:04.480,-0.352641,-0.212847,7.336433,-0.095408,0.063986,0.140396
2024-01-01 00:00:04.490,-0.726885,-0.227075,10.178893,0.185031,-0.022073,0.16424
2024-01-01 00:00:04.500,-0.043014,-0.262227,9.510417,-0.043386,-0.039119,0.275691
2024-01-01 00:00:04.510,0.655466,-0.689069,10.875252,0.103951,0.281809,0.063322
2024-01-01 00:00:04.520,-0.676454,-0.070082,8.603947,-0.156443,0.109825,-0.037309
2024-01-01 00:00:04.530,0.345902,-0.307774,9.130203,0.057481,-0.105999,0.125248
2024-01-01 00:00:04.540,-0.363889,-1.608267,8.155835,0.194449,-0.084895,0.127473
2024-01-01 00:00:04.550,-0.544109,1.127082,8.707289,-0.183075,-0.100517,0.245742
2024-01-01 00:00:04.560,-0.07345,0.597735,8.512184,0.19534,0.174948,-0.006694
2024-01-01 00:00:04.570,-0.710435,-0.206589,10.903579,0.013093,-0.06163,-0.024837
2024-01-01 00:00:04.580,-0.379942,0.010332,9.043308,0.261365,-0.358631,-0.107332
2024-01-01 00:00:04.590,-0.822044,-0.643238,9.946345,-0.050355,-0.009664,0.080619
2024-01-01 00:00:04.600,1.348293,0.930952,9.391922,0.095311,-0.307405,-0.232239
2024-01-01 00:00:04.610,0.0242,1.041611,8.416127,-0.010152,0.436846,0.116413
2024-01-01 00:00:04.620,-0.480187,0.086025,9.625206,-0.024053,-0.193134,0.088175
2024-01-01 00:00:04.630,0.146844,0.561918,10.467815,0.064733,-0.032373,0.087761
2024-01-01 00:00:04.640,-0.077085,0.096232,8.48388,0.134202,0.051641,0.020734
2024-01-01 00:00:04.650,-0.15164,-0.733862,10.698406,-0.312391,-0.057732,0.229947
2024-01-01 00:00:04.660,0.421472,-0.226091,8.877006,0.358408,-0.058006,0.130799
2024-01-01 00:00:04.670,0.51984,0.072428,9.279684,-0.464916,0.084365,-0.091062
2024-01-01 00:00:04.680,-0.364056,-0.249547,10.39269,-0.171203,0.305243,-0.088377
2024-01-01 00:00:04.690,-0.395155,-0.120041,9.081547,-0.023567,0.153502,-0.131951
2024-01-01 00:00:04.700,-0.188754,-0.050178,9.851257,0.103089,0.295703,0.082692
2024-01-01 00:00:04.710,-1.579693,-0.044402,9.464469,0.394043,-0.209324,-0.150021
2024-01-01 00:00:04.720,-1.0398,0.02869,9.952046,-0.464573,0.063473,0.162509
2024-01-01 00:00:04.730,0.938017,-0.582272,7.195948,-0.126924,0.031049,0.198446
2024-01-01 00:00:04.740,1.128859,-0.393642,7.801009,-0.531708,0.070218,-0.131852
2024-01-01 00:00:04.750,-0.170901,-0.705237,10.486332,0.007905,0.275246,-0.027832
2024-01-01 00:00:04.760,0.395662,0.536821,10.948825,0.067921,-0.044158,0.002493
2024-01-01 00:00:04.770,0.213595,-1.156,8.810286,0.397699,-0.081101,0.132597
2024-01-01 00:00:04.780,2.112882,0.633321,9.542057,0.030159,0.106796,0.241402
2024-01-01 00:00:04.790,0.768308,0.761106,10.133602,0.261006,-0.355641,-0.252824
2024-01-01 00:00:04.800,-0.087783,-0.165897,10.571153,0.145959,-0.04737,-0.047727
2024-01-01 00:00:04.810,-0.65574,-1.429122,7.58361,-0.108812,-0.02684,-0.039903
2024-01-01 00:00:04.820,-1.102424,-0.198359,8.837128,-0.35224,-0.184072,-0.2101
2024-01-01 00:00:04.830,0.139627,-0.035237,9.444828,0.068751,0.211412,-0.072767
2024-01-01 00:00:04.840,-0.519046,-0.554818,10.582048,-0.373026,-0.212448,0.064165
2024-01-01 00:00:04.850,-0.976022,-0.282855,12.553277,0.323802,-0.027175,-0.041802
2024-01-01 00:00:04.860,-0.443711,0.840077,9.55965,-0.040516,0.058631,-0.231693
2024-01-01 00:00:04.870,-0.742212,0.365045,8.265139,0.298794,0.27069,0.431112
2024-01-01 00:00:04.880,1.157801,-0.507586,10.25169,-0.120054,-0.002111,0.039927
2024-01-01 00:00:04.890,0.605025,-0.877082,11.260453,0.067213,0.187231,0.016754
2024-01-01 00:00:04.900,-0.005471,-0.179533,9.9286,0.052337,0.140119,-0.164689
2024-01-01 00:00:04.910,1.015612,-0.117188,8.8145,-0.011261,0.024692,0.039106
2024-01-01 00:00:04.920,0.053094,0.272413,10.861877,-0.108165,-0.217903,-0.024632
2024-01-01 00:00:04.930,-0.591056,-0.293889,10.538573,0.098114,-0.286916,-0.283279
2024-01-01 00:00:04.940,1.045244,0.280813,8.683363,-0.231541,0.021301,-0.160538
2024-01-01 00:00:04.950,0.369827,1.0624,10.228805,-0.302359,-0.108539,0.119239
2024-01-01 00:00:04.960,-0.71181,0.44771,10.904998,0.310707,0.183852,0.291603
2024-01-01 00:00:04.970,-0.13062,-0.026401,11.107715,0.181792,0.149171,0.055075
2024-01-01 00:00:04.980,-0.600893,-0.10055,9.737039,0.016473,-0.036922,0.165462
2024-01-01 00:00:04.990,-0.948946,-0.195814,9.416829,0.416286,-0.231543,-0.023363
2024-01-01 00:00:05.000,0.635589,0.648172,11.157547,-0.066941,0.102147,-0.012982
2024-01-01 00:00:05.010,1.310337,-0.344395,8.481244,0.330676,-0.20359,0.163647
2024-01-01 00:00:05.020,-0.959767,0.024827,10.29156,0.043894,-0.151693,0.249417
2024-01-01 00:00:05.030,0.386338,0.028108,8.305711,-0.256188,-0.195883,0.195165
2024-01-01 00:00:05.040,-0.446503,-0.27548,10.979783,0.46201,-0.0277,-0.159954
2024-01-01 00:00:05.050,-0.33429,-0.753484,9.526666,0.247678,0.234038,-0.010044
2024-01-01 00:00:05.060,-0.40653,0.177313,11.202904,-0.030255,-0.001008,0.041629
2024-01-01 00:00:05.070,-0.592914,-0.033491,10.349571,0.181793,-0.088644,-0.038952
2024-01-01 00:00:05.080,0.033298,0.274632,8.466904,-0.100926,-0.305123,0.058179
2024-01-01 00:00:05.090,-0.57024,-0.292947,11.374241,0.207287,0.110425,0.123087
2024-01-01 00:00:05.100,0.185601,0.670231,11.513267,-0.59777,-0.156081,0.150421
2024-01-01 00:00:05.110,-0.034476,-0.481349,10.778751,-0.25495,0.023504,0.252881
2024-01-01 00:00:05.120,-0.163978,0.93991,8.973777,0.244815,-0.070844,-0.049416
2024-01-01 00:00:05.130,-0.622816,-0.959452,9.473997,-0.062414,0.167635,-0.204605
2024-01-01 00:00:05.140,-0.395809,0.238689,9.969679,0.051886,-0.031447,0.053735
2024-01-01 00:00:05.150,0.518387,0.261011,9.037326,-0.336696,-0.011785,0.282572
2024-01-01 00:00:05.160,0.343754,-0.436761,11.668197,0.461967,0.097149,-0.071546
2024-01-01 00:00:05.170,-0.670847,0.232992,9.96847,0.297632,0.421388,0.103027
2024-01-01 00:00:05.180,0.068167,0.702456,6.841724,-0.050171,0.177689,0.104362
2024-01-01 00:00:05.190,0.515639,-1.217034,10.182613,-0.101174,-0.017721,0.028716
2024-01-01 00:00:05.200,-1.145629,0.276007,9.427723,0.257401,0.00064,0.001039
2024-01-01 00:00:05.210,0.372881,-1.368806,9.727731,0.495618,-0.104972,-0.138514
2024-01-01 00:00:05.220,-0.454726,-0.53015,9.405256,0.23844,-0.189999,-0.342249
2024-01-01 00:00:05.230,0.391573,0.894412,10.696137,0.542951,-0.11055,-0.166778
2024-01-01 00:00:05.240,-0.523787,-0.319398,11.039417,-0.230588,-0.15443,-0.058546
2024-01-01 00:00:05.250,-1.2386,-0.64446,10.120792,-0.204847,0.130674,0.164613
2024-01-01 00:00:05.260,-1.116901,-0.108668,9.437436,-0.297235,-0.214239,-0.015469
2024-01-01 00:00:05.270,0.032998,1.135281,9.764612,0.11044,0.266642,-0.077854
2024-01-01 00:00:05.280,0.178235,-1.005594,9.83152,0.043901,0.150409,-0.133648
2024-01-01 00:00:05.290,-0.620587,-0.577169,8.928932,-0.037988,0.0041,0.098521
2024-01-01 00:00:05.300,0.438234,0.82209,10.445664,0.202315,6.4e-05,0.203754
2024-01-01 00:00:05.310,-1.140218,1.019879,10.315126,0.308082,-0.111456,0.159515
2024-01-01 00:00:05.320,-0.045347,-0.056784,11.501404,-0.381416,0.054017,0.090922
2024-01-01 00:00:05.330,-0.83106,-0.68024,11.188374,-0.149243,0.217618,-0.221342
2024-01-01 00:00:05.340,-0.447323,1.150618,9.057129,0.205036,-0.140631,-0.052751
2024-01-01 00:00:05.350,0.032527,0.875349,10.710688,-0.116935,-0.306678,0.292096
2024-01-01 00:00:05.360,-0.590459,0.372742,8.765853,-0.199552,0.140644,0.168293
2024-01-01 00:00:05.370,-0.263901,-0.446009,10.574133,0.254634,0.064873,-0.230625
2024-01-01 00:00:05.380,0.690568,-0.026917,9.242758,-0.322375,-0.22404,-0.008339
2024-01-01 00:00:05.390,-0.395892,-0.088038,8.686468,-0.075395,-0.146678,0.054465
2024-01-01 00:00:05.400,0.573494,0.181637,10.11749,0.082161,-0.171821,-0.114324
2024-01-01 00:00:05.410,-0.775261,0.7966,6.873325,-0.143455,-0.144906,-0.346381
2024-01-01 00:00:05.420,0.363578,0.4828,7.887429,0.195789,-0.064737,0.014824
2024-01-01 00:00:05.430,0.989276,-0.591479,9.615114,-0.142219,-0.053309,-0.118164
2024-01-01 00:00:05.440,-1.696166,0.755697,9.900521,0.352155,-0.130159,-0.117576
2024-01-01 00:00:05.450,-0.546869,0.17191,9.404488,-0.031437,-0.151633,-0.053202
2024-01-01 00:00:05.460,0.396016,0.377199,8.075779,0.167818,-0.045757,-0.020051
2024-01-01 00:00:05.470,-0.13934,0.805131,8.911955,0.186506,0.033538,-0.001362
2024-01-01 00:00:05.480,0.254699,-0.610258,10.239548,-0.156885,-0.063259,-0.132598
2024-01-01 00:00:05.490,-0.414485,-0.019668,10.448796,-0.513372,0.231733,-0.033031
2024-01-01 00:00:05.500,0.059422,-0.291769,9.792187,0.090189,0.101618,-0.263614
2024-01-01 00:00:05.510,-0.106834,-0.860755,11.080203,0.018072,-0.318169,0.046656
2024-01-01 00:00:05.520,0.80139,0.190344,10.246342,0.138957,0.104746,-0.428441
2024-01-01 00:00:05.530,0.174596,1.378845,8.989294,-0.056632,0.121109,-0.043424
2024-01-01 00:00:05.540,0.23168,-1.010203,9.502009,-0.107607,-0.086947,0.137878
2024-01-01 00:00:05.550,-0.282651,-0.017722,8.269653,0.502118,-0.29904,-0.158901
2024-01-01 00:00:05.560,-0.33462,0.351658,9.691263,-0.368089,0.001613,0.107465
2024-01-01 00:00:05.570,-0.296843,0.06757,11.031086,0.183488,-0.001542,0.17336
2024-01-01 00:00:05.580,0.270693,-0.062107,10.562449,-0.14365,-0.224329,-0.496185
2024-01-01 00:00:05.590,-0.288901,-0.71327,11.349406,-0.083945,-0.290244,-0.022704
2024-01-01 00:00:05.600,0.198858,0.1278,9.477432,-0.079276,-0.017511,-0.431366
2024-01-01 00:00:05.610,1.424244,-0.415463,11.288018,-0.200859,-0.046615,-0.017731
2024-01-01 00:00:05.620,0.597809,-1.202267,9.597752,0.142806,-0.083453,-0.001076
2024-01-01 00:00:05.630,-0.223734,0.655831,11.4258,0.347661,-0.016682,-0.372382
2024-01-01 00:00:05.640,0.824333,0.526154,9.786001,0.117503,-0.220555,0.288726
2024-01-01 00:00:05.650,-0.280042,0.028362,10.58654,0.025845,-0.086964,0.042902
2024-01-01 00:00:05.660,-1.398663,0.125762,11.429673,-0.24661,0.106665,-0.127354
2024-01-01 00:00:05.670,-0.691799,0.589801,9.597616,0.129206,-0.069994,0.219807
2024-01-01 00:00:05.680,-1.283831,0.123162,10.049791,0.539087,-0.334394,-0.269342
2024-01-01 00:00:05.690,-0.241226,0.496306,11.225172,-0.095174,-0.094538,-0.184376
2024-01-01 00:00:05.700,2.45264,-0.163318,16.373963,-0.093996,-0.214032,-0.344918
2024-01-01 00:00:05.710,3.590455,0.720279,15.06966,-0.140272,0.053427,0.270157
2024-01-01 00:00:05.720,2.664354,0.176111,18.873022,-0.122354,0.063767,0.049852
2024-01-01 00:00:05.730,2.289642,0.106535,16.004199,-0.686325,-0.331755,0.09891
2024-01-01 00:00:05.740,3.00918,-0.697264,16.694314,0.101259,0.151803,0.04515
2024-01-01 00:00:05.750,-1.517392,0.157539,11.079295,-0.211388,-0.222437,0.086065
2024-01-01 00:00:05.760,0.16169,-0.456743,9.141874,-0.402566,0.311836,0.011712
2024-01-01 00:00:05.770,0.529006,-0.350417,8.703361,0.188297,-0.009755,0.040638
2024-01-01 00:00:05.780,-1.01468,-0.447641,10.088604,-0.270504,-0.249279,0.016141
2024-01-01 00:00:05.790,0.784901,-0.585363,7.841202,-0.084667,-0.228397,-0.091289
2024-01-01 00:00:05.800,0.232293,1.1665,9.493879,0.366611,0.069619,-0.006994
2024-01-01 00:00:05.810,-0.284991,0.730905,10.079052,-0.352304,-0.07826,0.041039
2024-01-01 00:00:05.820,0.434247,1.054282,9.513593,-0.38315,-0.019331,0.016582
2024-01-01 00:00:05.830,1.558263,-0.671369,8.115291,0.067327,0.322556,-0.221666
2024-01-01 00:00:05.840,0.124806,0.039118,11.560407,0.287372,-0.139849,-0.201748
2024-01-01 00:00:05.850,0.170341,-0.710136,9.923685,-0.393585,0.011993,0.162426
2024-01-01 00:00:05.860,-0.315236,-0.381936,11.381405,0.101922,0.283969,-0.046049
2024-01-01 00:00:05.870,-0.583206,-0.504052,9.52448,0.14525,0.054103,0.087709
2024-01-01 00:00:05.880,0.569818,0.680532,8.843747,-0.51479,-0.321321,-0.163818
2024-01-01 00:00:05.890,-0.587488,-0.21753,10.105561,0.199625,0.101078,-0.220972
2024-01-01 00:00:05.900,0.049112,0.58654,9.573066,0.219151,-0.232601,-0.126539
2024-01-01 00:00:05.910,-0.327792,0.331662,8.516818,-0.077946,0.281362,-0.033385
2024-01-01 00:00:05.920,0.3287,1.264698,11.423823,0.313087,-0.164574,-0.099771
2024-01-01 00:00:05.930,0.228976,-0.812215,9.126747,0.284114,0.593902,0.19409
2024-01-01 00:00:05.940,0.712012,0.691319,7.789388,0.025779,0.293475,0.026928
2024-01-01 00:00:05.950,-0.349999,0.629396,11.268326,-0.112861,-0.159323,0.277341
2024-01-01 00:00:05.960,-0.185202,-0.534385,9.256281,-0.243207,0.004003,0.060661
2024-01-01 00:00:05.970,-0.671677,0.552916,9.142609,-0.009391,0.150729,-0.361883
2024-01-01 00:00:05.980,-0.304896,0.184544,7.871604,0.14244,0.156732,0.158406
2024-01-01 00:00:05.990,0.258922,-0.124884,11.721554,-0.081044,0.088467,-0.226433
2024-01-01 00:00:06.000,0.519483,-0.452341,8.39415,-0.549375,0.250432,0.03458
2024-01-01 00:00:06.010,1.807164,-0.394791,16.584178,0.317178,-0.024594,-0.116203
2024-01-01 00:00:06.020,3.036767,1.125347,17.522057,0.047556,-0.073344,0.321407
2024-01-01 00:00:06.030,3.370306,0.000375,16.983045,-0.094906,-0.069373,0.21594
2024-01-01 00:00:06.040,2.72372,0.429389,16.4545,0.21429,0.171675,-0.111273
2024-01-01 00:00:06.050,3.727951,-0.434204,14.651571,0.38116,0.073036,-0.019104
2024-01-01 00:00:06.060,-0.531013,-0.428139,8.920922,-0.700478,0.058257,0.03669
2024-01-01 00:00:06.070,-0.854144,0.59401,10.016205,0.108566,0.159047,0.129512
2024-01-01 00:00:06.080,-1.220647,-0.740917,8.945683,-0.356662,-0.41021,0.004373
2024-01-01 00:00:06.090,1.02666,-0.227952,10.033289,0.124778,0.062014,-0.153734
2024-01-01 00:00:06.100,0.449058,0.018681,10.558554,0.031982,0.043714,-0.107634
2024-01-01 00:00:06.110,-0.038145,0.061144,10.866828,0.158932,0.333762,-0.000672
2024-01-01 00:00:06.120,0.192128,-0.098322,8.463655,-0.124812,-0.305718,0.185169
2024-01-01 00:00:06.130,-0.772367,0.217305,12.221917,-0.46831,0.311437,0.064176
2024-01-01 00:00:06.140,1.678397,0.380378,10.652692,-0.112592,0.015082,-0.116012
2024-01-01 00:00:06.150,0.088678,0.403316,9.808118,0.101712,0.097798,0.097256
2024-01-01 00:00:06.160,0.075072,-0.541206,11.006311,0.253848,0.335184,-0.058048
2024-01-01 00:00:06.170,0.498057,-0.156001,12.407218,-0.292958,0.112152,0.133561
2024-01-01 00:00:06.180,0.330093,0.655925,8.230285,0.256765,0.080074,0.379052
2024-01-01 00:00:06.190,0.15364,0.491161,9.562662,-0.161968,0.048458,-0.053824
2024-01-01 00:00:06.200,-0.542463,-0.7537,7.198482,0.090612,-0.096696,0.120241
2024-01-01 00:00:06.210,0.323545,0.192962,10.021531,-0.127473,-0.005698,-0.111809
2024-01-01 00:00:06.220,1.291539,-1.086046,10.211203,0.045543,-0.143103,-0.01684
2024-01-01 00:00:06.230,0.923295,0.025767,9.767,0.222969,-0.008913,0.004434
2024-01-01 00:00:06.240,1.093324,1.041874,9.091322,-0.306754,-0.467186,-0.029053
2024-01-01 00:00:06.250,-0.350822,-0.520393,7.559633,-0.169976,0.085808,0.369452
2024-01-01 00:00:06.260,-0.679116,-0.458043,10.22014,0.046241,-0.024347,-0.045989
2024-01-01 00:00:06.270,-0.086321,0.419452,11.408067,0.600396,-0.067241,0.088028
2024-01-01 00:00:06.280,0.038241,-0.846998,9.161062,-0.215797,0.043952,-0.289513
2024-01-01 00:00:06.290,0.750889,-0.347383,10.293186,0.510033,-0.286713,0.064799
2024-01-01 00:00:06.300,-1.161454,0.327446,8.088178,0.501106,0.385854,0.171308
2024-01-01 00:00:06.310,1.049654,-0.348223,10.31202,-0.024328,-0.020553,-0.07914
2024-01-01 00:00:06.320,-0.108433,-0.129548,9.378066,-0.074538,-0.029169,-0.376533
2024-01-01 00:00:06.330,-0.292947,0.408558,8.972865,-0.173016,-0.193079,-0.005798
2024-01-01 00:00:06.340,-0.694557,0.231429,8.975121,-0.017051,0.004789,0.002578
2024-01-01 00:00:06.350,-1.135645,0.146483,9.377814,-0.35168,0.277392,0.108611
2024-01-01 00:00:06.360,0.564901,-0.186178,10.229912,-0.01906,0.207183,0.301635
2024-01-01 00:00:06.370,0.050314,0.203164,8.369245,0.37422,0.170888,-0.057008
2024-01-01 00:00:06.380,-0.885236,-0.067929,9.373967,-0.152771,0.10928,-0.128443
2024-01-01 00:00:06.390,-0.888748,0.251335,9.764464,-0.060181,-0.071709,-0.175038
2024-01-01 00:00:06.400,-0.230432,-0.272816,8.603255,-0.425285,-0.290033,0.029712
2024-01-01 00:00:06.410,1.145366,-0.10023,11.782738,0.093516,-0.040208,0.071903
2024-01-01 00:00:06.420,-0.178145,-0.543487,8.872862,0.06612,-0.047174,-0.081848
2024-01-01 00:00:06.430,-1.031532,-0.019219,9.074958,0.015926,0.209759,0.116802
2024-01-01 00:00:06.440,-0.168641,-0.445239,8.735818,-0.054207,0.061878,0.069808
2024-01-01 00:00:06.450,-0.187157,-0.611612,11.784731,-0.073189,0.322462,0.006485
2024-01-01 00:00:06.460,-1.850738,0.142005,10.41709,0.125475,0.239498,-0.135362
2024-01-01 00:00:06.470,-0.03726,0.116794,8.781622,-0.007204,-0.091299,-0.07228
2024-01-01 00:00:06.480,-0.158479,0.429798,11.024642,0.078743,-0.359026,-0.364463
2024-01-01 00:00:06.490,0.477772,-0.236688,10.030367,0.053746,0.277115,0.035368
2024-01-01 00:00:06.500,1.268846,0.224021,10.092464,0.280857,0.271877,0.003951
2024-01-01 00:00:06.510,0.773105,0.302388,9.431764,0.169249,-0.273242,0.028272
2024-01-01 00:00:06.520,-0.184525,0.244181,8.987141,0.048215,0.301848,0.075648
2024-01-01 00:00:06.530,-0.759353,-0.453284,10.180867,0.379606,0.076423,0.057873
2024-01-01 00:00:06.540,1.765968,0.082001,9.211494,0.105067,0.032137,-0.016557
2024-01-01 00:00:06.550,0.040639,0.199913,11.804798,0.326241,0.322957,0.0073
2024-01-01 00:00:06.560,0.009559,0.003941,8.416318,0.151736,0.268937,-0.210647
2024-01-01 00:00:06.570,-0.016556,-1.145476,11.4967,-0.46048,0.130266,-0.087558
2024-01-01 00:00:06.580,0.135936,0.088109,9.687772,0.326209,0.094643,0.007571
2024-01-01 00:00:06.590,-0.099067,1.21468,10.138396,0.033794,0.123279,-0.110378
2024-01-01 00:00:06.600,-0.393676,-0.197662,10.724807,-0.012989,-0.080011,0.129023
2024-01-01 00:00:06.610,-0.375282,-0.399714,9.117986,0.070337,-0.01102,-0.098795
2024-01-01 00:00:06.620,-0.022477,0.204968,10.758945,-0.086246,-0.180463,0.032446
2024-01-01 00:00:06.630,-0.372925,0.171496,6.837117,0.056757,-0.066608,0.017485
2024-01-01 00:00:06.640,-0.48919,0.654812,9.019451,-0.147969,-0.073327,0.111942
2024-01-01 00:00:06.650,0.073038,-0.69057,8.795379,0.318568,-0.127061,0.135119
2024-01-01 00:00:06.660,-0.174978,0.401528,8.43365,-0.028397,0.027349,0.104105
2024-01-01 00:00:06.670,1.032115,0.324142,9.57398,-0.095646,-0.064796,-0.315901
2024-01-01 00:00:06.680,-1.819228,-0.078038,10.233553,-0.231231,0.100447,0.179122
2024-01-01 00:00:06.690,0.749047,0.185939,10.581521,0.067194,-0.324464,0.229096
2024-01-01 00:00:06.700,0.855126,0.565172,10.074483,0.046777,-0.022671,-0.072319
2024-01-01 00:00:06.710,-1.422864,0.478901,9.079069,0.097106,0.02631,0.035497
2024-01-01 00:00:06.720,-0.235169,-0.627518,10.21518,-0.256813,-0.062126,-0.133625
2024-01-01 00:00:06.730,-0.254901,0.450267,9.946466,-0.400295,-0.034479,-0.292257
2024-01-01 00:00:06.740,-0.965905,-0.035514,10.83779,0.156398,-0.317049,-0.110807
2024-01-01 00:00:06.750,-0.533777,0.040008,10.663076,0.37116,0.071295,-0.081021
2024-01-01 00:00:06.760,-0.762133,0.040185,9.843463,-0.256588,0.129521,-0.053228
2024-01-01 00:00:06.770,1.202496,-0.082483,8.824816,0.39736,0.098707,-0.143837
2024-01-01 00:00:06.780,0.642109,0.654247,9.093061,0.070978,0.207745,-0.110014
2024-01-01 00:00:06.790,0.872605,-0.045961,9.206331,-0.001766,0.040306,-0.001651
2024-01-01 00:00:06.800,0.495247,-0.614631,9.463838,-0.099387,0.095736,-0.115534
2024-01-01 00:00:06.810,-0.774812,-0.216048,10.104319,-0.34613,0.031218,0.081529
2024-01-01 00:00:06.820,-0.359952,0.098103,10.595261,0.246932,0.13751,0.102249
2024-01-01 00:00:06.830,0.335833,0.674839,9.753872,-0.193902,-0.315446,0.357058
2024-01-01 00:00:06.840,-0.838685,0.331099,9.827705,-0.194952,-0.178716,0.168852
2024-01-01 00:00:06.850,0.489295,-0.466944,9.96735,0.247982,0.31738,0.036465
2024-01-01 00:00:06.860,-0.164923,1.364369,9.243536,-0.470746,-0.492087,-0.09304
2024-01-01 00:00:06.870,-0.257221,0.145362,8.793919,-0.380899,-0.028036,0.044062
2024-01-01 00:00:06.880,0.487896,0.70019,7.882529,-0.004534,0.234455,0.048989
2024-01-01 00:00:06.890,0.304876,-0.083291,9.046726,0.073321,-0.018652,-0.076997
2024-01-01 00:00:06.900,-0.247713,0.292814,10.329514,0.121184,-0.081002,0.11756
2024-01-01 00:00:06.910,0.79559,0.460868,9.038203,-0.07545,0.025884,-0.209715
2024-01-01 00:00:06.920,-0.74188,0.668789,9.548888,0.632592,-0.070624,-0.03666
2024-01-01 00:00:06.930,0.422686,0.580495,10.322142,-0.056973,0.00617,0.083379
2024-01-01 00:00:06.940,0.407016,0.478836,10.381717,-0.057697,-0.136676,-0.043138
2024-01-01 00:00:06.950,-0.212426,-0.172983,8.624673,-0.199247,0.221735,-0.031013
2024-01-01 00:00:06.960,0.223809,-0.313889,10.904771,0.030977,0.284653,-0.020668
2024-01-01 00:00:06.970,-0.858577,0.182602,11.04783,0.15374,-0.026678,-0.12534
2024-01-01 00:00:06.980,0.634114,0.512287,8.569425,0.300895,-0.277298,0.176085
2024-01-01 00:00:06.990,-0.126889,-0.122274,8.905427,-0.372321,-0.104769,-0.152706
2024-01-01 00:00:07.000,-0.358719,0.584779,11.117818,-0.061499,-0.036798,0.047724
2024-01-01 00:00:07.010,0.719883,0.797487,9.648755,0.111676,0.101108,0.062047
2024-01-01 00:00:07.020,-0.483356,-0.50306,7.372684,0.146764,-0.201603,-0.142293
2024-01-01 00:00:07.030,-0.966557,-0.459469,8.27315,0.001637,-0.153832,0.010966
2024-01-01 00:00:07.040,-1.068237,-0.077066,9.536192,0.135606,0.102135,-0.136445
2024-01-01 00:00:07.050,0.415874,0.168879,8.532979,-0.202241,0.187782,0.208656
2024-01-01 00:00:07.060,-0.878695,-0.287987,9.356061,0.389476,-0.124319,-0.170817
2024-01-01 00:00:07.070,1.204228,0.742359,9.845571,0.248157,-0.266643,-0.098085
2024-01-01 00:00:07.080,-1.428724,0.232813,11.415556,-0.336232,0.656824,-0.183634
2024-01-01 00:00:07.090,1.164193,0.021656,9.491082,-0.268776,0.156661,-0.203655
2024-01-01 00:00:07.100,0.144811,-0.788314,10.987651,-0.26173,-0.053401,0.238682
2024-01-01 00:00:07.110,-0.066369,-0.722383,11.378779,0.169492,0.173806,0.081416
2024-01-01 00:00:07.120,-0.373951,0.154274,11.384872,-0.321182,-0.024891,0.021044
2024-01-01 00:00:07.130,0.273907,-1.170795,10.122661,-0.082756,0.173431,-0.098487
2024-01-01 00:00:07.140,-0.025827,0.555938,7.654309,0.113676,0.031879,0.136142
2024-01-01 00:00:07.150,0.757141,-0.086826,10.315986,-0.016541,0.018254,-0.123633
2024-01-01 00:00:07.160,0.078389,1.780458,10.961143,0.064722,-0.022716,0.119046
2024-01-01 00:00:07.170,0.103145,1.267046,9.720988,-0.266451,-0.289476,-0.130877
2024-01-01 00:00:07.180,-0.249529,-0.099616,11.725553,0.148714,0.387619,-0.096676
2024-01-01 00:00:07.190,-0.039079,-0.058379,10.754097,-0.153303,-0.188307,0.113742
2024-01-01 00:00:07.200,0.211229,0.546574,10.433964,-0.081155,-0.272005,0.129574
2024-01-01 00:00:07.210,-1.173603,0.935042,11.002846,0.059433,-0.042572,0.089621
2024-01-01 00:00:07.220,-0.925192,-0.899278,10.17604,0.02577,-0.192294,-0.157451
2024-01-01 00:00:07.230,0.510065,-0.98072,7.072894,0.005995,-0.010343,-0.067009
2024-01-01 00:00:07.240,0.117256,-0.341497,9.261945,-0.187657,0.137553,0.023535
2024-01-01 00:00:07.250,-0.126259,0.319923,11.12449,-0.074887,0.199061,-0.127392
2024-01-01 00:00:07.260,0.01265,0.272784,8.923265,0.000546,0.162946,0.205644
2024-01-01 00:00:07.270,0.238528,0.587305,9.564627,-0.343771,-0.061126,-0.360292
2024-01-01 00:00:07.280,-0.37041,-0.658634,8.66277,-0.115633,0.009918,-0.116811
2024-01-01 00:00:07.290,-0.534112,-1.271563,11.768747,0.09692,0.081576,-0.076435
2024-01-01 00:00:07.300,0.134399,0.47105,11.656279,-0.319359,-0.351557,-0.426592
2024-01-01 00:00:07.310,-0.671408,-0.45468,8.839512,0.289145,0.114117,-0.209434
2024-01-01 00:00:07.320,0.280163,-1.10815,9.971733,0.317403,-0.29146,0.093793
2024-01-01 00:00:07.330,-1.168398,0.07964,9.062818,-0.311288,0.408069,0.004543
2024-01-01 00:00:07.340,0.706258,0.435453,10.485209,0.339405,-0.080903,0.23597
2024-01-01 00:00:07.350,0.32432,-0.067009,10.369632,-0.035895,-0.036975,0.231784
2024-01-01 00:00:07.360,0.1757,-0.251359,10.701253,0.104629,-0.153941,0.064957
2024-01-01 00:00:07.370,0.674372,-0.08749,10.174446,-0.124163,-0.125994,0.046986
2024-01-01 00:00:07.380,1.142932,-0.20345,13.033076,0.230761,0.454819,0.00989
2024-01-01 00:00:07.390,0.696111,-0.740078,8.68134,0.101524,0.188074,-0.398262
2024-01-01 00:00:07.400,-1.2633,-0.39236,7.931758,-0.203538,-0.30984,-0.209184
2024-01-01 00:00:07.410,-0.87811,0.286183,9.378387,-0.2913,0.300843,0.015101
2024-01-01 00:00:07.420,-0.428782,0.176602,8.088349,-0.365076,0.238648,0.092404
2024-01-01 00:00:07.430,0.017905,0.092265,8.171276,0.046985,-0.056242,0.04345
2024-01-01 00:00:07.440,0.355244,-0.546337,8.710557,0.143118,0.061339,-0.13387
2024-01-01 00:00:07.450,-0.498042,-0.099645,8.797437,0.162741,-0.002989,0.140611
2024-01-01 00:00:07.460,0.128169,-1.195209,8.761829,-0.029495,0.394516,0.222367
2024-01-01 00:00:07.470,-0.518382,0.097984,10.379004,-0.289249,-0.159258,0.140698
2024-01-01 00:00:07.480,-0.419654,0.784443,9.254204,-0.170519,0.029202,0.14844
2024-01-01 00:00:07.490,-0.965321,-0.809299,9.612893,0.288087,-0.085629,-0.083884
2024-01-01 00:00:07.500,-0.633569,-0.321674,10.791868,-0.121157,-0.286608,0.16139
2024-01-01 00:00:07.510,-0.927594,0.18068,8.968578,0.035854,0.438328,0.021864
2024-01-01 00:00:07.520,-0.669693,0.687811,9.519529,-0.268913,-0.236313,0.076733
2024-01-01 00:00:07.530,0.723062,-0.246075,10.211604,0.084146,0.044026,0.054815
2024-01-01 00:00:07.540,-0.651525,-0.380045,7.678159,-0.114421,-0.34814,-0.018223
2024-01-01 00:00:07.550,4.246472,-1.080939,13.901374,0.261678,-0.079814,-0.129
2024-01-01 00:00:07.560,2.778539,0.056788,16.900037,0.193389,0.084394,-0.01232
2024-01-01 00:00:07.570,2.566844,1.1211,17.060232,-0.123926,-0.164947,0.148014
2024-01-01 00:00:07.580,1.850952,0.15227,18.786514,-0.031666,0.11736,-0.066221
2024-01-01 00:00:07.590,2.920588,-0.012231,16.693588,-0.137779,-0.053808,0.134002
2024-01-01 00:00:07.600,-0.395031,0.176823,10.710074,-0.354858,0.232017,0.110561
2024-01-01 00:00:07.610,0.083729,-0.00609,9.595371,-0.214361,0.272352,-0.044841
2024-01-01 00:00:07.620,1.756858,-0.446345,10.136355,0.049554,-0.117349,0.20832
2024-01-01 00:00:07.630,-0.065921,0.451981,11.640648,0.081315,0.015347,-0.053332
2024-01-01 00:00:07.640,0.788689,0.123943,7.477856,0.037137,0.036691,0.226432
2024-01-01 00:00:07.650,-0.482555,0.00967,10.264151,-0.075433,0.12387,0.065119
2024-01-01 00:00:07.660,-0.024011,-0.535476,12.154874,0.233267,0.002876,-0.00238
2024-01-01 00:00:07.670,1.215212,0.715626,10.119674,0.015885,0.038042,-0.13317
2024-01-01 00:00:07.680,-0.430256,0.364922,11.622329,0.175813,-0.048681,-0.013239
2024-01-01 00:00:07.690,1.243793,-0.303554,9.119125,-0.443444,0.023048,-0.030564
2024-01-01 00:00:07.700,0.485695,0.550002,9.774812,-0.9806,0.259588,-0.188744
2024-01-01 00:00:07.710,-0.385993,-0.273166,9.84681,0.070947,0.129217,-0.032642
2024-01-01 00:00:07.720,0.43399,-0.42932,7.375085,-0.356191,0.140251,-0.12057
2024-01-01 00:00:07.730,0.667415,-0.417077,8.527341,-0.053113,0.144614,0.087899
2024-01-01 00:00:07.740,0.426717,-0.972317,8.605631,-0.075524,-0.030762,0.195942
2024-01-01 00:00:07.750,-1.077567,0.258877,10.712629,0.39685,0.063765,-0.184037
2024-01-01 00:00:07.760,-0.498998,-1.005299,10.767624,0.099999,-0.217035,0.256846
2024-01-01 00:00:07.770,-0.16986,-0.674416,10.165792,0.041465,0.253762,-0.019283
2024-01-01 00:00:07.780,-0.05108,-1.139498,10.714865,0.209248,-0.556592,-0.146253
2024-01-01 00:00:07.790,0.425936,-0.047252,9.629764,0.092124,-0.01743,0.113663
2024-01-01 00:00:07.800,0.121947,-0.082526,11.129721,-0.114419,0.228179,-0.066968
2024-01-01 00:00:07.810,-0.91638,-0.179356,9.81965,0.267869,-0.272774,-0.012261
2024-01-01 00:00:07.820,0.260911,-0.572375,9.873535,-0.277438,0.079956,-0.060642
2024-01-01 00:00:07.830,0.419014,-0.643556,9.518379,0.080812,-0.136153,-0.122511
2024-01-01 00:00:07.840,0.384156,0.254939,10.561527,-0.386892,-0.073761,0.1086
2024-01-01 00:00:07.850,0.741686,-0.302253,9.347524,0.050986,0.189188,-0.042945
2024-01-01 00:00:07.860,3.012279,0.173681,17.592122,0.048247,0.039611,-0.215498
2024-01-01 00:00:07.870,2.755112,-0.486002,15.2769,0.419114,-0.406871,0.082659
2024-01-01 00:00:07.880,2.391849,0.099403,15.31339,-0.391243,-0.195285,-0.180837
2024-01-01 00:00:07.890,1.300166,0.7155,17.274795,-0.150222,0.195067,-0.172989
2024-01-01 00:00:07.900,2.734826,0.321805,16.422778,0.205671,0.089789,0.178891
2024-01-01 00:00:07.910,0.142526,-0.226415,9.311627,0.083829,0.349627,-0.179451
2024-01-01 00:00:07.920,0.186371,0.141202,10.787283,0.045076,0.33653,-0.347467
2024-01-01 00:00:07.930,-0.876169,-0.132125,9.143227,-0.239034,-0.068449,0.093429
2024-01-01 00:00:07.940,-0.741875,0.004326,9.590179,-0.147705,0.500648,-0.04558
2024-01-01 00:00:07.950,0.722726,-0.17876,11.346352,0.31126,0.004896,-0.032648
2024-01-01 00:00:07.960,-0.027145,-0.09022,11.499978,-0.012877,-0.192534,-0.047175
2024-01-01 00:00:07.970,0.46768,0.116439,11.536493,0.09384,-0.126728,0.03475
2024-01-01 00:00:07.980,0.019433,-0.545354,9.500226,-0.028797,-0.451345,-0.112908
2024-01-01 00:00:07.990,0.02042,-0.557717,11.161312,-0.295771,0.321404,0.221417
2024-01-01 00:00:08.000,0.643897,-0.76231,8.76805,0.233453,0.318952,-0.221435
2024-01-01 00:00:08.010,-0.354136,-0.878549,8.814221,0.125808,-0.203101,0.066731
2024-01-01 00:00:08.020,0.065963,-0.668288,7.229199,0.576409,-0.045577,0.096318
2024-01-01 00:00:08.030,-0.317236,0.087545,11.646809,-0.253895,0.019122,-0.113948
2024-01-01 00:00:08.040,-0.298173,-0.49014,8.86135,0.205643,-0.192071,-0.15356
2024-01-01 00:00:08.050,-0.212169,0.281974,9.671067,-0.327886,-0.35102,0.152576
2024-01-01 00:00:08.060,0.152439,0.019058,8.810464,0.039337,-0.042072,-0.148629
2024-01-01 00:00:08.070,-0.328541,-1.080709,10.573291,0.244127,-0.064216,-0.091
2024-01-01 00:00:08.080,0.861763,0.359582,9.397554,-0.518034,-0.077682,0.133096
2024-01-01 00:00:08.090,-0.613924,0.445128,8.377311,-0.051233,0.044543,0.005211
2024-01-01 00:00:08.100,-0.128241,-0.545631,10.294945,-0.140802,0.285904,-0.269572
2024-01-01 00:00:08.110,-0.301765,0.230685,8.235764,-0.175489,-0.060619,0.262059
2024-01-01 00:00:08.120,0.992989,-0.470218,8.890529,0.096303,0.034089,-0.079502
2024-01-01 00:00:08.130,0.134886,0.053621,7.496636,0.280171,0.145374,-0.060414
2024-01-01 00:00:08.140,0.708103,-0.69421,8.246494,-0.03332,0.110829,0.038368
2024-01-01 00:00:08.150,-1.019466,-0.984415,10.006025,0.051372,-0.122885,0.093762
2024-01-01 00:00:08.160,0.183263,-0.210167,7.652939,0.028577,0.019275,0.294166
2024-01-01 00:00:08.170,0.610509,-0.067927,8.183702,0.000451,0.109508,-0.24901
2024-01-01 00:00:08.180,0.056467,-0.218326,9.807399,-0.272336,-0.22567,0.123893
2024-01-01 00:00:08.190,0.731186,-0.650033,9.21312,0.277111,0.252708,0.111451
2024-01-01 00:00:08.200,-0.354989,-0.219545,11.997256,0.073799,0.286318,-0.020575
2024-01-01 00:00:08.210,0.967165,0.147843,11.823618,0.09872,-0.144556,0.118091
2024-01-01 00:00:08.220,1.577619,-0.024646,8.857021,-0.201627,0.038734,0.140141
2024-01-01 00:00:08.230,-0.248998,0.100193,10.421737,-0.114805,0.128456,-0.207294
2024-01-01 00:00:08.240,-0.305726,-0.367893,10.632712,-0.044034,-0.109123,0.262465
2024-01-01 00:00:08.250,0.997385,0.643273,9.153968,-0.383531,0.096323,-0.233814
2024-01-01 00:00:08.260,1.083981,-0.645719,8.167895,-0.422009,0.032651,-0.170297
2024-01-01 00:00:08.270,-0.358813,0.267671,9.796496,-0.150187,-0.293584,-0.039268
2024-01-01 00:00:08.280,-0.288353,0.648858,9.620215,0.13063,0.091832,0.288741
2024-01-01 00:00:08.290,-0.193375,0.264019,9.331531,-0.163284,-0.220028,-0.046238
2024-01-01 00:00:08.300,-0.922629,-0.111186,10.295664,-0.254701,0.187841,-0.00479
2024-01-01 00:00:08.310,-0.630425,-0.290035,8.985699,-0.203671,-0.134242,0.214812
2024-01-01 00:00:08.320,-0.689092,0.568812,8.545107,-0.113836,-0.032257,-0.045048
2024-01-01 00:00:08.330,-0.526901,-0.781213,9.929773,-0.088465,0.274456,-0.176766
2024-01-01 00:00:08.340,-0.023803,-0.532598,10.233795,0.54138,0.099276,-0.062585
2024-01-01 00:00:08.350,0.16073,-0.218259,8.518044,0.263655,-0.215895,0.205619
2024-01-01 00:00:08.360,1.064031,0.679472,10.829043,0.256194,-0.202983,0.01063
2024-01-01 00:00:08.370,-0.68512,0.208492,7.866012,0.292145,-0.119861,0.289599
2024-01-01 00:00:08.380,0.675491,-0.531457,9.175231,-0.249705,0.078929,0.11069
2024-01-01 00:00:08.390,-0.14685,-0.170359,9.526707,-0.305591,0.07166,-0.096721
2024-01-01 00:00:08.400,-0.033944,-0.337263,9.111426,-0.276718,-0.16862,0.007661
2024-01-01 00:00:08.410,0.463095,-0.389674,9.189564,0.333627,-0.233442,-0.127983
2024-01-01 00:00:08.420,-0.770468,0.53741,11.86444,-0.136798,0.056317,-0.100265
2024-01-01 00:00:08.430,0.262429,-0.753087,8.875729,-0.312839,-0.036372,0.671863
2024-01-01 00:00:08.440,0.114228,0.883221,12.490461,-0.107749,0.431443,0.152794
2024-01-01 00:00:08.450,0.337945,0.454698,10.289965,-0.059651,0.007321,0.129165
2024-01-01 00:00:08.460,0.198442,0.598883,9.911077,0.067103,0.362851,-0.093477
2024-01-01 00:00:08.470,1.68495,-0.254154,10.332912,0.062738,-0.234077,0.235438
2024-01-01 00:00:08.480,-0.437649,-0.082317,12.587861,-0.207045,-0.314643,0.164912
2024-01-01 00:00:08.490,-0.364397,-0.7868,8.719035,0.171414,-0.224017,0.282243
2024-01-01 00:00:08.500,-0.42763,-0.28804,8.579781,-0.159798,0.237826,0.274967
2024-01-01 00:00:08.510,-0.381196,0.271017,8.981157,-0.039069,0.35122,-0.221863
2024-01-01 00:00:08.520,-0.437407,0.711539,9.845293,0.171694,-0.156436,-0.166476
2024-01-01 00:00:08.530,0.815963,-0.607829,7.915103,-0.160455,-0.092113,-0.150568
2024-01-01 00:00:08.540,0.974821,-0.200663,9.834528,-0.142338,-0.233796,-0.141591
2024-01-01 00:00:08.550,-0.391675,-0.083063,11.669515,0.147917,-0.362328,0.048518
2024-01-01 00:00:08.560,-0.571204,-0.766288,9.976245,-0.214433,0.143682,-0.085021
2024-01-01 00:00:08.570,0.323509,0.324651,9.488631,-0.096198,0.044604,0.31089
2024-01-01 00:00:08.580,-0.378963,-0.397471,9.13126,0.138936,0.002098,0.285702
2024-01-01 00:00:08.590,0.434349,-0.107269,10.796566,0.513523,-0.280011,-0.000969
2024-01-01 00:00:08.600,0.139256,-0.24812,8.903236,0.151351,0.327991,0.293299
2024-01-01 00:00:08.610,-1.040179,-0.433347,11.837343,0.11816,-0.100671,0.22322
2024-01-01 00:00:08.620,1.061975,-0.003868,11.932829,0.1327,0.106725,-0.067606
2024-01-01 00:00:08.630,1.232421,-0.11837,10.091912,-0.268298,-0.290912,-0.301382
2024-01-01 00:00:08.640,-0.420526,-0.20415,9.797356,0.028899,-0.038105,-0.032695
2024-01-01 00:00:08.650,-0.26606,-0.399925,10.941664,-0.007442,0.058275,-0.096693
2024-01-01 00:00:08.660,0.196175,0.175419,11.012089,0.080396,0.065415,0.030976
2024-01-01 00:00:08.670,0.229521,0.907836,8.925021,0.029127,0.03093,0.013384
2024-01-01 00:00:08.680,0.451926,0.076798,9.231842,0.094925,0.098904,0.009453
2024-01-01 00:00:08.690,1.379503,0.546869,8.358063,-0.077867,-0.226104,0.078553
2024-01-01 00:00:08.700,-0.12143,-0.763232,10.259153,0.014652,0.039475,-0.181878
2024-01-01 00:00:08.710,-0.547831,0.086611,10.541957,-0.306957,0.022752,0.061704
2024-01-01 00:00:08.720,-0.946558,-0.602455,8.327782,-0.079977,0.046335,-0.065942
2024-01-01 00:00:08.730,-0.501601,-0.810832,9.310192,0.347708,0.014469,0.029997
2024-01-01 00:00:08.740,-0.022733,-0.405915,8.330715,0.079702,-0.254643,0.143611
2024-01-01 00:00:08.750,1.231515,0.654353,8.823118,-0.00523,-0.26356,-0.18366
2024-01-01 00:00:08.760,-0.355211,0.521559,10.415017,0.474031,-0.442854,-0.042194
2024-01-01 00:00:08.770,0.153574,0.13341,9.004637,-0.340209,0.163507,-0.01778
2024-01-01 00:00:08.780,-0.01127,-0.841453,9.479693,-0.277364,0.165532,-0.07714
2024-01-01 00:00:08.790,0.815535,-0.107758,8.023212,0.428178,0.16871,0.134974
2024-01-01 00:00:08.800,1.734107,0.165633,10.015315,0.01149,0.061358,-0.108058
2024-01-01 00:00:08.810,-0.364309,0.096369,9.761388,-0.060646,-0.426624,-0.08331
2024-01-01 00:00:08.820,-0.335878,-1.012243,9.009603,-0.299801,-0.205342,-0.106488
2024-01-01 00:00:08.830,0.716555,-0.488784,9.602462,0.111924,0.034083,0.163808
2024-01-01 00:00:08.840,0.467948,-0.035179,10.007964,0.136115,0.027104,-0.073867
2024-01-01 00:00:08.850,1.267303,0.294424,8.915275,-0.273624,-0.04455,0.069007
2024-01-01 00:00:08.860,0.400721,-1.205674,8.189064,-0.035069,0.073783,0.296356
2024-01-01 00:00:08.870,-0.246564,-0.089006,11.792521,-0.083879,0.00233,-0.011223
2024-01-01 00:00:08.880,0.405337,0.078534,9.114667,0.063994,0.024154,0.166809
2024-01-01 00:00:08.890,0.760848,0.466437,9.703757,-0.279813,-0.127813,0.250703
2024-01-01 00:00:08.900,0.563056,0.380379,10.919902,0.312987,0.196402,0.154079
2024-01-01 00:00:08.910,0.348117,0.319832,13.684903,0.228956,-0.086154,-0.00252
2024-01-01 00:00:08.920,0.732006,-0.439167,8.443554,-0.090794,-0.26613,0.096316
2024-01-01 00:00:08.930,0.802429,-1.047493,10.30391,-0.054105,-0.1542,-0.193107
2024-01-01 00:00:08.940,0.948507,-0.215786,9.033108,-0.034106,-0.069693,-0.117006
2024-01-01 00:00:08.950,0.445177,0.549896,9.218408,-0.194577,0.198801,-0.090701
2024-01-01 00:00:08.960,-0.114685,0.765007,9.019207,-0.110857,-0.008454,0.336092
2024-01-01 00:00:08.970,0.100682,0.390091,8.574031,-0.067568,-0.03723,-0.121888
2024-01-01 00:00:08.980,0.827967,0.235708,9.764662,0.403217,-0.249733,-0.124122
2024-01-01 00:00:08.990,-0.560622,0.208422,8.190996,0.236655,0.157097,-0.156588
2024-01-01 00:00:09.000,0.253002,-0.305309,10.849595,0.233664,-0.13039,0.083972
2024-01-01 00:00:09.010,-0.269929,-0.071403,9.870393,0.092481,-0.020006,0.021393
2024-01-01 00:00:09.020,0.019726,0.916319,10.273834,-0.279332,0.296037,0.163014
2024-01-01 00:00:09.030,0.877338,-0.517464,9.298125,-0.010373,0.101753,0.100689
2024-01-01 00:00:09.040,0.131142,0.886514,9.40681,0.242622,-0.325651,-0.207058
2024-01-01 00:00:09.050,0.031867,-0.176793,10.125745,-0.314566,-0.353902,-0.121092
2024-01-01 00:00:09.060,-0.933201,0.727662,8.531872,0.159138,-0.012862,0.204799
2024-01-01 00:00:09.070,0.512117,-0.772341,9.416927,0.580652,-0.242548,-0.030495
2024-01-01 00:00:09.080,0.442964,0.321661,8.866144,0.265454,0.129709,0.178139
2024-01-01 00:00:09.090,1.484534,-0.404487,8.832155,0.353507,0.008453,-0.022452
2024-01-01 00:00:09.100,-0.211213,-0.776982,7.493398,0.054585,0.033077,-0.145148
2024-01-01 00:00:09.110,0.150392,0.119975,11.280581,0.241983,-0.141349,-0.045489
2024-01-01 00:00:09.120,0.17114,0.5542,9.05618,-0.179463,0.348277,-0.145207
2024-01-01 00:00:09.130,1.082527,-0.463873,11.087387,0.198966,0.568519,-0.084833
2024-01-01 00:00:09.140,-0.065397,-0.82296,10.983534,0.163597,-0.055717,0.030139
2024-01-01 00:00:09.150,0.191479,-0.050423,8.397972,0.072478,0.070608,0.076741
2024-01-01 00:00:09.160,0.417169,-0.048002,8.614924,0.329002,0.019483,-0.238529
2024-01-01 00:00:09.170,0.128061,0.301027,12.621432,-0.134696,-0.051937,-0.002605
2024-01-01 00:00:09.180,-0.306365,0.521327,11.732517,-0.046764,-0.166414,-0.087992
2024-01-01 00:00:09.190,0.133194,-0.032619,9.775393,0.023866,-0.216994,-0.097262
2024-01-01 00:00:09.200,0.73678,1.018671,10.092596,-0.257403,-0.227119,0.019903
2024-01-01 00:00:09.210,-0.704446,0.123105,9.117331,0.056733,0.081048,-0.082568
2024-01-01 00:00:09.220,0.09125,-0.190188,10.284723,-0.429733,-0.103935,0.207321
2024-01-01 00:00:09.230,-0.480458,-0.88475,9.022534,0.261739,-0.515659,0.178209
2024-01-01 00:00:09.240,0.820101,-0.1442,7.578476,0.011659,0.088972,0.177274
2024-01-01 00:00:09.250,-1.045287,-0.184676,8.358932,-0.130223,-0.007652,-0.074237
2024-01-01 00:00:09.260,-0.38356,0.527207,9.83316,-0.208593,0.269335,-0.144375
2024-01-01 00:00:09.270,0.258862,0.253904,8.568088,-0.058645,0.074624,0.012304
2024-01-01 00:00:09.280,1.074341,-0.647474,9.736129,0.172065,-0.295735,-0.022552
2024-01-01 00:00:09.290,-0.045121,0.094568,8.630022,0.136935,-0.445935,-0.091323
2024-01-01 00:00:09.300,-0.381006,0.368671,8.950975,-0.176384,-0.143894,-0.17636
2024-01-01 00:00:09.310,1.290944,0.838889,10.746776,-0.21151,-0.125021,-0.006228
2024-01-01 00:00:09.320,-0.9937,0.48724,10.081734,0.164225,0.188632,-0.06061
2024-01-01 00:00:09.330,-1.508931,0.417705,9.799388,-0.180587,-0.001774,0.103252
2024-01-01 00:00:09.340,0.30196,0.032987,10.775102,0.014977,0.226738,0.099766
2024-01-01 00:00:09.350,-0.344535,0.213183,10.337708,0.030939,-0.264967,0.16512
2024-01-01 00:00:09.360,-0.700821,0.685978,11.398326,0.078016,0.193053,-0.188894
2024-01-01 00:00:09.370,0.48611,-0.731695,9.305075,0.214568,0.144198,0.060159
2024-01-01 00:00:09.380,0.167308,-0.191842,9.338261,-0.315741,-0.403647,-0.10912
2024-01-01 00:00:09.390,-0.387099,-0.42414,8.381382,-0.47779,0.264524,-0.183062
2024-01-01 00:00:09.400,1.561391,0.208155,16.048979,-0.141862,0.018692,-0.06429
2024-01-01 00:00:09.410,3.038724,0.675392,17.579317,0.450382,0.078409,0.160306
2024-01-01 00:00:09.420,2.886201,-0.327739,17.947386,0.505544,-0.172979,-0.055848
2024-01-01 00:00:09.430,2.371941,-1.312277,17.574415,0.457794,0.255049,0.234818
2024-01-01 00:00:09.440,3.707255,-0.226309,14.549977,-0.048245,-0.23717,0.082332
2024-01-01 00:00:09.450,-0.734346,0.501497,10.999293,-0.445529,0.166418,-0.059114
2024-01-01 00:00:09.460,-1.046892,0.295159,7.791307,-0.58576,0.164121,0.174007
2024-01-01 00:00:09.470,-0.474822,0.235074,10.796133,-0.15351,-0.194833,0.06681
2024-01-01 00:00:09.480,-0.031283,-0.153716,9.406173,-0.049518,0.396675,-0.139884
2024-01-01 00:00:09.490,0.166992,-0.702188,10.581382,0.325156,0.046306,0.27882
2024-01-01 00:00:09.500,-0.165548,0.282897,8.346972,0.216951,0.130779,0.038922
2024-01-01 00:00:09.510,0.241598,-0.458021,11.095942,0.056851,-0.305424,0.002819
2024-01-01 00:00:09.520,-0.858869,1.199069,8.201458,-0.222461,0.423546,-0.12833
2024-01-01 00:00:09.530,0.990783,0.313208,9.076037,-0.240195,-0.244911,0.176931
2024-01-01 00:00:09.540,-0.056376,-0.318776,8.714092,0.063532,0.204977,0.077591
2024-01-01 00:00:09.550,0.766744,-0.335651,7.883795,0.174263,-0.198954,0.094386
2024-01-01 00:00:09.560,0.235195,-0.051026,9.913791,0.09797,-0.123798,-0.07613
2024-01-01 00:00:09.570,0.313447,-0.131487,11.793086,-0.258649,0.157751,0.125115
2024-01-01 00:00:09.580,0.391003,0.613142,12.738262,0.162667,0.205511,0.136772
2024-01-01 00:00:09.590,0.30724,0.102342,9.916677,0.106478,-0.254257,-0.100317
2024-01-01 00:00:09.600,0.441068,-0.401666,11.036116,-0.267667,0.218094,-0.212549
2024-01-01 00:00:09.610,0.912131,1.037852,10.06484,-0.19608,0.208996,0.087206
2024-01-01 00:00:09.620,0.134863,0.02707,10.357774,0.172124,-0.187591,-0.236002
2024-01-01 00:00:09.630,0.486554,0.422093,9.434321,-0.058627,0.31973,0.022802
2024-01-01 00:00:09.640,-0.061581,-0.333916,10.024194,0.397287,-0.291372,-0.067087
2024-01-01 00:00:09.650,0.98828,0.19935,10.400152,0.125282,-0.124955,0.1828
2024-01-01 00:00:09.660,-0.464174,0.170799,9.174851,-0.121658,0.095801,-0.058927
2024-01-01 00:00:09.670,1.235895,-1.037417,9.724911,-0.002551,-0.170713,0.166091
2024-01-01 00:00:09.680,-0.027558,1.106386,9.745844,0.015846,0.052764,-0.077131
2024-01-01 00:00:09.690,-0.981869,0.708564,10.717391,-0.182098,0.048215,0.149999
2024-01-01 00:00:09.700,0.087912,-0.21806,8.639497,-0.228147,-0.037415,0.309051
2024-01-01 00:00:09.710,1.972628,-0.605146,16.463407,0.175347,0.16648,-0.160207
2024-01-01 00:00:09.720,3.016892,0.190811,18.619382,0.211318,-0.045672,0.043805
2024-01-01 00:00:09.730,1.992137,0.047597,17.798138,0.150945,0.046308,0.412317
2024-01-01 00:00:09.740,2.133807,0.195262,18.001399,0.37883,0.229294,0.009988
2024-01-01 00:00:09.750,1.143303,0.105176,16.546826,-0.135443,0.158137,0.009268
2024-01-01 00:00:09.760,-0.310395,0.277926,10.162455,0.418568,0.157203,0.118275
2024-01-01 00:00:09.770,-1.663387,0.794571,10.910455,-0.22523,-0.229836,0.006162
2024-01-01 00:00:09.780,-1.086953,0.311889,11.523161,-0.253171,0.104959,-0.256084
2024-01-01 00:00:09.790,0.521835,-0.576261,7.66714,-0.43999,-0.1757,0.169843
2024-01-01 00:00:09.800,0.539255,0.748047,8.365645,-0.111449,-0.256283,-0.300442
2024-01-01 00:00:09.810,0.29197,0.900697,11.24777,-0.125931,-0.014341,-0.062519
2024-01-01 00:00:09.820,-0.663587,1.730479,9.505975,0.131484,-0.180859,0.181114
2024-01-01 00:00:09.830,-0.032742,-0.616798,9.072451,0.060973,0.158124,-0.053481
2024-01-01 00:00:09.840,-0.002472,0.133342,8.432931,-0.298243,0.162907,-0.104054
2024-01-01 00:00:09.850,-0.794928,-1.143072,9.200592,-0.098182,-0.380525,0.13189
2024-01-01 00:00:09.860,1.031707,0.303679,8.270199,-0.092866,-0.165661,-0.127667
2024-01-01 00:00:09.870,0.60209,-0.300962,12.106022,-0.443996,-0.291957,-0.183334
2024-01-01 00:00:09.880,-0.151637,1.055972,9.785365,-0.245237,-0.092526,0.041177
2024-01-01 00:00:09.890,0.01845,-0.425264,9.74637,-0.192703,0.091035,-0.027438
2024-01-01 00:00:09.900,0.143003,-0.927361,10.455708,0.358406,-0.048458,-0.186551
2024-01-01 00:00:09.910,-1.401141,-0.258724,10.866655,0.047863,-0.117952,0.095543
2024-01-01 00:00:09.920,-0.169625,-1.084543,10.848585,0.165542,0.260035,0.069673
2024-01-01 00:00:09.930,-0.468012,0.412354,10.988837,-0.374659,-0.460971,-0.053963
2024-01-01 00:00:09.940,-0.687362,-1.133731,9.117332,0.298554,0.247374,-0.0437
2024-01-01 00:00:09.950,-0.192905,0.015623,9.482942,0.325276,-0.108858,0.070559
2024-01-01 00:00:09.960,1.233662,-1.140719,10.654397,-0.499586,-0.015622,0.178554
2024-01-01 00:00:09.970,0.439778,-0.175843,9.230927,-0.176329,-0.105473,-0.042419
2024-01-01 00:00:09.980,-0.391972,0.902215,9.804393,0.123941,0.308578,0.098203
2024-01-01 00:00:09.990,0.392935,0.197996,10.247843,0.161097,-0.246196,0.08478
2024-01-01 00:00:10.000,0.960308,-0.474058,10.672133,-0.169624,0.002347,0.131896
2024-01-01 00:00:10.010,0.63453,-0.017131,7.858106,-0.076375,0.105488,0.005896
2024-01-01 00:00:10.020,0.040921,0.009891,10.594791,-0.149345,-0.322201,-0.136849
2024-01-01 00:00:10.030,-0.44396,0.259474,9.553371,0.027605,-0.18398,-0.069375
2024-01-01 00:00:10.040,0.479156,-0.750405,10.586789,0.299295,-0.029636,0.051428
2024-01-01 00:00:10.050,0.270029,0.325319,10.663071,-0.192761,-0.177333,0.27277
2024-01-01 00:00:10.060,0.614326,-1.484711,11.575491,0.250205,-0.163118,-0.072603
2024-01-01 00:00:10.070,0.435887,-0.345807,11.296092,-0.195418,-0.069973,0.120718
2024-01-01 00:00:10.080,0.720256,-0.268062,11.288536,-0.211907,0.129916,-0.049208
2024-01-01 00:00:10.090,-0.367305,0.347696,11.39515,0.204649,-0.068544,0.01657
2024-01-01 00:00:10.100,0.904062,0.012424,10.129934,0.230484,0.215685,0.22731
2024-01-01 00:00:10.110,0.135603,-0.771654,9.845339,0.212852,-0.199552,0.114644
2024-01-01 00:00:10.120,1.424148,-0.540761,10.768353,-0.328949,-0.250384,-0.186195
2024-01-01 00:00:10.130,-0.472955,0.109075,10.613825,-0.116488,0.385269,-0.085871
2024-01-01 00:00:10.140,1.191305,-0.043408,9.470645,0.205747,-0.131592,0.188433
2024-01-01 00:00:10.150,0.135816,-0.317939,10.254496,0.010385,-0.262182,0.021282
2024-01-01 00:00:10.160,-0.447036,-0.263978,9.771464,-0.268423,-0.348411,-0.172326
2024-01-01 00:00:10.170,-0.332067,0.382196,8.872382,0.114579,0.215021,-0.122843
2024-01-01 00:00:10.180,-0.219838,-0.284213,11.226926,-0.178702,-0.068261,0.105524
2024-01-01 00:00:10.190,0.291084,-0.048362,9.870609,0.448631,-0.050742,0.149162
2024-01-01 00:00:10.200,0.358796,1.191295,12.059482,0.38621,-0.03184,0.002678
2024-01-01 00:00:10.210,-0.393702,-0.781602,8.025209,0.151024,0.202589,0.371297
2024-01-01 00:00:10.220,-0.016713,-1.016662,9.198657,0.340252,-0.035906,0.123623
2024-01-01 00:00:10.230,1.470133,0.430191,9.845837,0.016198,0.468811,-0.036522
2024-01-01 00:00:10.240,1.185527,-0.372575,11.058844,0.191359,0.026752,-0.122356
2024-01-01 00:00:10.250,0.299427,-0.174712,10.248617,0.36943,0.212357,-0.146233
2024-01-01 00:00:10.260,0.02608,-0.428855,10.150899,0.061375,0.161048,0.050313
2024-01-01 00:00:10.270,0.082371,-0.14263,8.572264,-0.063797,-0.007289,-0.073317
2024-01-01 00:00:10.280,0.421027,0.877597,8.539678,-0.426155,-0.117394,0.251062
2024-01-01 00:00:10.290,-0.701891,0.440369,10.16411,-0.020783,0.066393,0.219947
2024-01-01 00:00:10.300,-0.176625,0.473361,8.312212,0.205856,0.10202,0.09496
2024-01-01 00:00:10.310,-1.145066,-0.777509,9.225998,0.236408,-0.114517,-0.176849
2024-01-01 00:00:10.320,0.273967,-0.631983,10.360007,0.126091,0.033268,-0.100833
2024-01-01 00:00:10.330,0.444138,-1.558654,8.731408,-0.135325,0.247241,0.188352
2024-01-01 00:00:10.340,-0.331587,-0.44435,11.572681,-0.494205,0.41399,-0.08446
2024-01-01 00:00:10.350,1.080148,0.52523,11.153882,-0.123804,0.170874,0.168321
2024-01-01 00:00:10.360,-0.841182,0.283804,8.084581,-0.076086,0.372552,0.071191
2024-01-01 00:00:10.370,-1.004927,-0.121611,8.786256,-0.078232,-0.125875,0.007758
2024-01-01 00:00:10.380,0.15403,-0.012243,7.300217,0.154639,0.140376,-0.105425
2024-01-01 00:00:10.390,0.718571,-0.378198,8.950715,0.496419,0.267704,-0.014137
2024-01-01 00:00:10.400,1.155595,0.112413,10.651495,0.030882,-0.179267,0.028447
2024-01-01 00:00:10.410,-0.314909,0.420467,9.355543,-0.054183,-0.097118,0.154881
2024-01-01 00:00:10.420,0.740245,-0.887122,10.315955,-0.064805,0.347581,-0.13286
2024-01-01 00:00:10.430,-0.026426,0.164507,8.138477,0.031096,-0.19502,-0.039423
2024-01-01 00:00:10.440,-0.118465,0.511907,10.686177,-0.207073,-0.268226,0.006723
2024-01-01 00:00:10.450,0.606412,-0.22789,9.20049,0.03005,0.305596,0.099402
2024-01-01 00:00:10.460,0.447657,0.384685,9.823362,0.112703,0.239353,-0.13627
2024-01-01 00:00:10.470,-1.081799,1.545245,9.708024,0.052422,0.086424,-0.197485
2024-01-01 00:00:10.480,1.013276,-0.057284,8.41384,0.114385,-0.009142,0.101095
2024-01-01 00:00:10.490,0.947088,0.215926,8.543913,0.108437,-0.087705,-0.227692
2024-01-01 00:00:10.500,-0.429292,-0.405193,10.872638,-0.442974,0.05639,0.192747
2024-01-01 00:00:10.510,0.27162,0.099507,10.248093,0.159218,0.315961,-0.023389
2024-01-01 00:00:10.520,0.339028,0.252689,10.962954,-0.167754,0.047713,-0.23213
2024-01-01 00:00:10.530,0.178887,0.106968,10.166475,-0.27396,0.433392,-0.072063
2024-01-01 00:00:10.540,-0.377647,-0.559813,9.967004,-0.276113,-0.179588,0.056869
2024-01-01 00:00:10.550,-0.460902,0.113293,7.91484,0.108385,-0.003936,-0.079905
2024-01-01 00:00:10.560,-0.017536,0.802746,9.513137,-0.055644,-0.074612,0.003004
2024-01-01 00:00:10.570,0.804785,0.246301,9.779932,-0.420492,-0.217028,0.111012
2024-01-01 00:00:10.580,0.373046,0.528131,11.954512,0.119509,-0.030617,-0.030329
2024-01-01 00:00:10.590,-0.254334,-0.13012,10.564278,-0.359902,0.083466,-0.140559
2024-01-01 00:00:10.600,0.529578,0.411695,11.496595,0.034955,0.104846,-0.044848
2024-01-01 00:00:10.610,-1.954812,0.153318,10.466096,0.059625,0.43409,0.212226
2024-01-01 00:00:10.620,0.78834,-0.52205,9.028989,0.221394,0.092893,0.25276
2024-01-01 00:00:10.630,-1.193879,0.174868,9.938602,0.445421,0.230027,-0.302989
2024-01-01 00:00:10.640,-0.248725,-0.544441,10.069374,-0.341169,0.013219,0.163654
2024-01-01 00:00:10.650,-0.768373,-0.347451,8.778807,-0.013118,0.335611,0.037522
2024-01-01 00:00:10.660,-0.888475,0.103941,9.387943,-0.069084,0.47969,0.138597
2024-01-01 00:00:10.670,0.796617,0.163187,9.584068,0.108437,0.106217,-0.082573
2024-01-01 00:00:10.680,-0.32096,-0.652889,11.572971,0.053917,-0.198532,-0.26524
2024-01-01 00:00:10.690,0.237788,0.578638,7.525347,-0.088137,-0.109761,0.087673
2024-01-01 00:00:10.700,-0.032199,0.314031,11.133989,-0.110226,0.056387,-0.141147
2024-01-01 00:00:10.710,0.327369,-0.386896,8.781399,-0.279113,0.0913,-0.208244
2024-01-01 00:00:10.720,0.052719,-0.844134,8.303457,0.246965,0.139685,-0.19776
2024-01-01 00:00:10.730,-0.880453,-0.079553,11.105576,0.114801,0.09204,0.090137
2024-01-01 00:00:10.740,0.683688,-0.244823,10.613624,0.229442,0.001397,0.020918
2024-01-01 00:00:10.750,-0.33884,0.062114,11.187462,-0.077599,-0.12724,0.11737
2024-01-01 00:00:10.760,-1.068204,-0.199351,10.689171,-0.164209,0.080228,0.100361
2024-01-01 00:00:10.770,-0.293794,-1.102094,12.07171,-0.269579,0.370997,-0.06314
2024-01-01 00:00:10.780,1.029896,-0.213202,10.423479,0.089729,0.203986,-0.010571
2024-01-01 00:00:10.790,0.583465,-0.167785,9.638188,-0.259948,0.106941,-0.076716
2024-01-01 00:00:10.800,-0.239263,0.34788,10.186533,0.462166,0.205913,-0.031549
2024-01-01 00:00:10.810,-0.239678,-0.383312,11.175329,-0.326911,-0.074213,-0.145088
2024-01-01 00:00:10.820,-0.220722,0.921592,8.954246,0.068415,-0.101653,0.058573
2024-01-01 00:00:10.830,1.425168,-1.049491,9.094226,0.391714,-0.149557,0.161268
2024-01-01 00:00:10.840,0.262103,0.719831,9.470762,0.149772,-0.025057,-0.122492
2024-01-01 00:00:10.850,0.295116,-0.123151,7.499168,0.043918,-0.084401,0.19219
2024-01-01 00:00:10.860,0.707032,0.471912,9.96161,-0.242121,0.241655,0.017028
2024-01-01 00:00:10.870,0.163869,0.043811,7.739031,-0.345442,-0.095065,0.036162
2024-01-01 00:00:10.880,-0.177768,0.625616,9.868259,0.192513,-0.160544,-0.254914
2024-01-01 00:00:10.890,-0.134745,-0.212662,10.760088,0.376537,0.388515,-0.271089
2024-01-01 00:00:10.900,-0.049136,-0.603143,9.28639,-0.109712,-0.090275,0.021617
2024-01-01 00:00:10.910,-0.025544,0.779857,11.651473,-0.284765,0.030706,0.11846
2024-01-01 00:00:10.920,0.499336,-0.062301,8.20637,-0.614542,0.090265,-0.100707
2024-01-01 00:00:10.930,0.035648,0.121636,11.118004,-0.245191,-0.227339,0.250514
2024-01-01 00:00:10.940,0.502774,0.677879,10.5513,-0.028414,0.247097,0.11024
2024-01-01 00:00:10.950,-0.055392,-0.566543,7.925795,0.399781,0.127424,-0.136251
2024-01-01 00:00:10.960,0.053963,0.326925,12.786452,0.168283,0.311677,0.004627
2024-01-01 00:00:10.970,-1.371265,-0.323852,9.740008,0.076271,-0.135844,0.371539
2024-01-01 00:00:10.980,0.62883,-0.072561,8.846523,-0.10003,0.019825,-0.186385
2024-01-01 00:00:10.990,0.237778,0.039681,8.265018,-0.145791,0.007871,0.07924
2024-01-01 00:00:11.000,0.684884,-0.823622,9.56842,0.351412,0.052778,-0.048412
2024-01-01 00:00:11.010,-1.987555,-0.427582,9.670107,0.050185,-0.290923,0.106034
2024-01-01 00:00:11.020,1.433147,0.741739,9.922705,-0.52565,0.022167,0.190091
2024-01-01 00:00:11.030,-0.095793,0.486519,9.48302,-0.168385,-0.285293,-0.057936
2024-01-01 00:00:11.040,0.76049,-0.034389,10.505281,-0.214554,0.071667,0.167837
2024-01-01 00:00:11.050,-0.713635,0.133475,9.384382,-0.136566,-0.42573,0.333181
2024-01-01 00:00:11.060,0.420516,-0.161539,7.685409,0.140728,-0.370317,0.009941
2024-01-01 00:00:11.070,-0.722906,0.744764,9.646001,-0.026861,0.16371,0.117733
2024-01-01 00:00:11.080,-0.428061,-0.109994,7.21051,-0.019216,-0.109368,-0.088566
2024-01-01 00:00:11.090,1.313504,0.127281,10.19844,0.328368,-0.197572,0.002889
2024-01-01 00:00:11.100,-0.130856,0.629171,8.734728,-0.174115,0.254169,-0.026501
2024-01-01 00:00:11.110,0.149213,-0.426777,9.98937,0.46605,0.065525,0.11954
2024-01-01 00:00:11.120,0.597084,0.855775,11.252854,-0.167827,0.174418,0.180701
2024-01-01 00:00:11.130,0.340162,-0.840223,8.768274,0.0223,-0.033248,-0.016448
2024-01-01 00:00:11.140,0.103225,0.894674,10.975259,-0.070301,0.535926,0.230043
2024-01-01 00:00:11.150,0.250454,-0.204599,9.334138,0.030855,-0.120903,0.229507
2024-01-01 00:00:11.160,1.649344,-0.133242,11.735008,0.111148,0.348899,0.127028
2024-01-01 00:00:11.170,-0.039541,-1.037616,9.409062,0.108459,-0.012273,-0.077404
2024-01-01 00:00:11.180,0.138004,-0.249682,8.887139,-0.188279,-0.330902,-0.091774
2024-01-01 00:00:11.190,0.721012,-0.570854,10.564588,-0.280729,0.09657,-0.121857
2024-01-01 00:00:11.200,0.758667,-0.333598,9.331503,0.625793,0.062953,0.142375
2024-01-01 00:00:11.210,0.8146,-0.075384,8.886088,-0.120996,-0.210264,-0.181765
2024-01-01 00:00:11.220,0.438329,0.525828,9.285332,0.174803,-0.184444,0.101526
2024-01-01 00:00:11.230,-0.784387,0.113974,9.761022,-0.40191,-0.00494,-0.162166
2024-01-01 00:00:11.240,3.560942,0.168914,17.993714,-0.069903,0.06995,0.123532
2024-01-01 00:00:11.250,1.65332,-0.60144,14.396372,-0.0318,-0.494133,0.002583
2024-01-01 00:00:11.260,2.647684,-0.483534,16.545343,0.118204,0.210624,0.200046
2024-01-01 00:00:11.270,1.922378,0.9875,17.206144,-0.680614,-0.0989,0.171218
2024-01-01 00:00:11.280,2.395985,-0.403625,16.732407,0.041535,-0.266349,0.21526
2024-01-01 00:00:11.290,0.225613,0.909258,11.248232,-0.287435,0.188213,0.219123
2024-01-01 00:00:11.300,0.220531,-0.133441,9.728369,0.081086,-0.004724,0.021545
2024-01-01 00:00:11.310,0.289543,0.001256,9.607363,-0.259082,0.243233,-0.173819
2024-01-01 00:00:11.320,1.107409,0.58763,10.460378,-0.213871,0.08759,-0.157878
2024-01-01 00:00:11.330,0.311238,0.698269,9.919047,-0.068407,-0.000303,-0.313027
2024-01-01 00:00:11.340,-0.167552,-0.060836,9.381331,-0.263082,-0.030546,-0.16255
2024-01-01 00:00:11.350,0.661605,-0.213145,10.376726,-0.118884,0.096543,0.010324
2024-01-01 00:00:11.360,0.816274,-0.0307,9.093524,-0.298344,-0.082706,-0.083948
2024-01-01 00:00:11.370,-0.842446,0.185539,9.138927,-0.458293,-0.170515,-0.02702
2024-01-01 00:00:11.380,0.409966,0.489326,9.230263,0.254489,0.121982,0.073907
2024-01-01 00:00:11.390,0.48118,0.002322,11.29567,-0.324012,-0.028898,-0.04561
2024-01-01 00:00:11.400,-0.204203,0.339769,6.273324,-0.04467,0.006714,-0.168274
2024-01-01 00:00:11.410,0.944079,0.899459,10.244368,0.188223,0.217876,-0.007985
2024-01-01 00:00:11.420,-0.102976,0.209339,9.84763,-0.153736,-0.022775,-0.134774
2024-01-01 00:00:11.430,0.086177,0.171097,7.964404,-0.206291,0.003007,-0.040618
2024-01-01 00:00:11.440,-0.118771,-0.833882,10.15008,0.05656,-0.11993,0.201417
2024-01-01 00:00:11.450,0.010691,-1.444271,10.332376,0.279483,0.086148,-0.040576
2024-01-01 00:00:11.460,-0.752319,0.213218,10.457424,-0.292329,0.069966,0.265644
2024-01-01 00:00:11.470,-0.988235,-0.052059,6.898293,-0.037537,0.180155,0.214745
2024-01-01 00:00:11.480,1.094229,-0.282616,11.310296,-0.433124,-0.115826,-0.086896
2024-01-01 00:00:11.490,-0.581227,0.133698,8.999965,-0.0983,-0.091563,-0.166669
2024-01-01 00:00:11.500,-0.680343,-0.033162,10.563851,0.008551,0.158427,-0.007883
2024-01-01 00:00:11.510,-1.477764,0.619151,10.623699,-0.213656,0.050443,0.172999
2024-01-01 00:00:11.520,-0.438487,0.047275,8.847387,-0.114248,-0.181244,-0.073529
2024-01-01 00:00:11.530,-0.90797,-0.410061,10.535185,-0.352057,0.261311,0.136214
2024-01-01 00:00:11.540,1.126833,0.543601,9.386728,0.01927,-0.33969,0.181266
2024-01-01 00:00:11.550,3.132987,-0.119205,14.245628,0.263924,0.156857,-0.116104
2024-01-01 00:00:11.560,1.967757,0.289069,17.802181,-0.274286,-0.253042,-0.101408
2024-01-01 00:00:11.570,3.985734,-0.262098,15.669001,-0.155668,0.377158,0.106899
2024-01-01 00:00:11.580,3.113737,-0.356755,15.581766,0.125637,-0.30892,0.022777
2024-01-01 00:00:11.590,2.217084,0.046208,16.077434,0.303023,0.23045,-0.102909
2024-01-01 00:00:11.600,-1.715217,0.007043,10.108916,-0.373297,-0.016327,-0.052827
2024-01-01 00:00:11.610,1.572159,0.263425,9.747117,-0.042196,-0.073321,-0.010578
2024-01-01 00:00:11.620,-0.953594,-0.147487,10.411777,0.070783,0.037079,-0.234728
2024-01-01 00:00:11.630,-1.129155,-1.008162,8.339241,-0.025514,0.12638,0.114846
2024-01-01 00:00:11.640,0.701739,-0.237593,8.99486,-0.619198,-0.18088,-0.071804
2024-01-01 00:00:11.650,1.67428,0.435806,9.682635,0.125273,-0.163158,-0.417557
2024-01-01 00:00:11.660,0.949957,-0.163259,11.89388,0.379834,0.129921,-0.003581
2024-01-01 00:00:11.670,0.386983,-0.135264,9.685034,0.029165,-0.341469,-0.111236
2024-01-01 00:00:11.680,0.40815,0.541521,11.001574,-0.257777,-0.116846,0.253323
2024-01-01 00:00:11.690,0.585656,-0.390873,9.852334,-0.128282,0.608137,-0.087817
2024-01-01 00:00:11.700,0.520815,-0.846999,9.278943,0.442478,-0.193603,-0.164647
2024-01-01 00:00:11.710,0.192968,-0.088186,9.539097,0.227491,0.229561,0.07619
2024-01-01 00:00:11.720,0.071508,-0.265811,9.625075,0.160007,-0.11719,-0.099067
2024-01-01 00:00:11.730,-0.042955,-0.530469,10.472803,0.089103,0.101809,-0.116918
2024-01-01 00:00:11.740,-0.517408,-0.096283,11.319323,-0.165284,0.130871,0.076425
2024-01-01 00:00:11.750,-0.192613,0.269837,10.20493,-0.050143,0.225791,-0.15607
2024-01-01 00:00:11.760,-1.161792,-0.005099,11.113411,-0.019481,-0.040051,-0.218591
2024-01-01 00:00:11.770,-0.067486,0.168533,8.750661,0.137394,0.397777,0.2589
2024-01-01 00:00:11.780,-0.678421,0.995561,9.354736,0.37723,-0.117867,0.086925
2024-01-01 00:00:11.790,-0.757338,-0.18824,9.014716,0.279585,0.046844,-0.039631
2024-01-01 00:00:11.800,0.123452,0.152813,10.15526,-0.354846,0.049055,-0.000522
2024-01-01 00:00:11.810,0.955262,-0.279558,9.415864,0.055999,-0.224394,0.07588
2024-01-01 00:00:11.820,0.630195,-0.464651,10.611291,0.184191,-0.057174,0.146001
2024-01-01 00:00:11.830,-1.077756,-0.321114,8.78776,0.154715,0.032303,-0.113396
2024-01-01 00:00:11.840,-0.679132,-0.262838,9.857248,-0.157308,-0.086424,0.054922
2024-01-01 00:00:11.850,0.645604,0.197352,10.56417,0.728527,0.488185,-0.076006
2024-01-01 00:00:11.860,-0.674232,1.289643,7.542298,-0.319271,-0.167725,-0.028347
2024-01-01 00:00:11.870,-0.154154,-0.393108,12.139551,-0.270797,0.235885,0.024104
2024-01-01 00:00:11.880,0.377473,-0.228727,9.499099,0.058399,0.171292,-0.001002
2024-01-01 00:00:11.890,-0.664526,-0.034655,7.586506,0.529201,-0.002772,0.110335
2024-01-01 00:00:11.900,0.072314,0.217294,9.983587,-0.209049,-0.173042,0.073063
2024-01-01 00:00:11.910,-0.915475,0.144689,9.846721,-0.066457,-0.153651,-0.226225
2024-01-01 00:00:11.920,-0.412689,0.704969,9.72008,0.269323,-0.103593,-0.203673
2024-01-01 00:00:11.930,0.21945,-1.332089,10.898328,-0.004466,-0.357148,-0.055458
2024-01-01 00:00:11.940,-1.093192,-1.310424,10.630695,-0.083651,-0.200693,0.274294
2024-01-01 00:00:11.950,0.302276,-0.272237,10.137068,0.141408,-0.296495,-0.127739
2024-01-01 00:00:11.960,-0.013476,0.602418,10.304271,0.068129,0.269175,-0.031233
2024-01-01 00:00:11.970,0.379146,-0.859541,9.695414,0.25761,0.123692,-0.080452
2024-01-01 00:00:11.980,0.153661,-1.65119,11.759489,0.322867,0.157195,-0.083107
2024-01-01 00:00:11.990,0.936141,0.313577,8.185843,0.076751,0.117766,0.026736
2024-01-01 00:00:12.000,0.085935,0.133768,9.963338,0.072933,0.033394,0.210117
2024-01-01 00:00:12.010,-0.29468,-0.598524,9.881397,0.053528,0.292136,0.068395
2024-01-01 00:00:12.020,0.083927,-0.541061,10.702982,0.122283,-0.122153,-0.12053
2024-01-01 00:00:12.030,0.372838,-0.532389,8.883448,0.013793,0.021334,0.412984
2024-01-01 00:00:12.040,0.03353,0.060684,7.895447,-0.000152,0.149412,0.011786
2024-01-01 00:00:12.050,0.027856,-0.343847,9.982192,0.299157,-0.264242,-0.086583
2024-01-01 00:00:12.060,-0.481742,0.271241,10.118791,0.379029,0.619318,0.211814
2024-01-01 00:00:12.070,-0.454916,-1.56719,11.44558,-0.376888,0.005713,-0.070361
2024-01-01 00:00:12.080,-0.962538,-0.470412,8.415142,0.002505,0.028398,0.249437
2024-01-01 00:00:12.090,1.200647,-0.618204,11.077854,-0.172174,0.251376,-0.130596
2024-01-01 00:00:12.100,-0.853601,-0.140731,12.409421,-0.077743,0.182991,0.214505
2024-01-01 00:00:12.110,-0.475506,-0.295388,9.395214,0.100629,0.007616,0.030157
2024-01-01 00:00:12.120,-0.493007,0.438016,8.392545,0.16736,0.026026,0.193658
2024-01-01 00:00:12.130,0.614142,-1.020776,9.363142,-0.028032,-0.30083,0.285265
2024-01-01 00:00:12.140,-0.202409,0.024975,9.825377,-0.478335,-0.111293,-0.169891
2024-01-01 00:00:12.150,0.856263,0.306527,10.429039,-0.241261,0.103442,0.191366
2024-01-01 00:00:12.160,-0.462183,1.019299,9.160649,0.224125,0.088779,-0.211336
2024-01-01 00:00:12.170,0.19146,-0.26449,11.517608,-0.685107,0.244233,-0.157078
2024-01-01 00:00:12.180,-0.573257,0.178128,8.586244,0.296857,-0.0241,-0.120511
2024-01-01 00:00:12.190,1.472109,-0.990321,7.900353,0.130307,-0.277457,0.075545
2024-01-01 00:00:12.200,-0.814989,-1.313184,11.025168,0.329044,0.211346,0.004952
2024-01-01 00:00:12.210,0.212614,0.463781,7.312466,-0.049642,0.287218,-0.02507
2024-01-01 00:00:12.220,0.434929,-0.003053,9.585866,-0.515351,0.179649,0.021935
2024-01-01 00:00:12.230,0.28397,0.647003,13.233214,0.107591,-0.032727,0.088693
2024-01-01 00:00:12.240,-0.127154,-0.753998,9.796776,0.318663,0.208877,0.100237
2024-01-01 00:00:12.250,-0.089089,0.285426,8.579397,0.23118,0.685782,0.164125
2024-01-01 00:00:12.260,0.030066,1.025981,9.746978,-0.165673,0.02303,0.273005
2024-01-01 00:00:12.270,-0.10088,0.230418,9.754221,0.02169,-0.262347,-0.003204
2024-01-01 00:00:12.280,0.661462,0.151843,9.986394,-0.133209,-0.117257,-0.078163
2024-01-01 00:00:12.290,1.516971,0.004697,10.537165,-0.204817,0.125095,0.09203
2024-01-01 00:00:12.300,-0.382579,-0.862414,8.669056,0.238847,-0.320961,-0.171638
2024-01-01 00:00:12.310,-0.940027,0.74421,11.662928,-0.299383,0.033881,-0.101806
2024-01-01 00:00:12.320,-0.060584,-0.335361,10.079135,-0.223454,0.076067,0.149907
2024-01-01 00:00:12.330,1.770326,0.276961,10.60802,-0.276006,0.307024,-0.018619
2024-01-01 00:00:12.340,-0.551522,-0.858106,9.120292,-0.372562,0.262039,-0.181229
2024-01-01 00:00:12.350,1.124844,-0.647523,11.222448,0.036604,0.172917,-0.22347
2024-01-01 00:00:12.360,1.151322,0.787863,9.527756,0.290376,-0.432536,0.007308
2024-01-01 00:00:12.370,-0.3799,-0.190669,10.114753,-0.046219,0.184211,0.171284
2024-01-01 00:00:12.380,0.390465,0.797848,8.78545,-0.376437,0.141103,0.169282
2024-01-01 00:00:12.390,1.117487,-0.042949,8.715369,0.209986,0.051189,0.016632
2024-01-01 00:00:12.400,-0.260176,-1.011202,10.565649,0.421425,-0.346044,0.301336
2024-01-01 00:00:12.410,-0.139707,0.489745,9.32292,-0.161561,-0.155355,-0.015723
2024-01-01 00:00:12.420,-0.399179,-0.323851,8.872502,-0.119639,-0.233365,-0.020785
2024-01-01 00:00:12.430,-0.696377,0.38358,9.103785,0.128915,-0.403002,-0.385115
2024-01-01 00:00:12.440,-0.445567,0.013841,10.57745,0.405468,-0.000583,-0.067104
2024-01-01 00:00:12.450,-0.839929,-0.847172,9.119316,-0.129959,-0.159564,0.127802
2024-01-01 00:00:12.460,0.02339,0.090198,9.680815,-0.333112,0.525061,0.234594
2024-01-01 00:00:12.470,-0.528394,1.205727,9.8265,0.157855,-0.033754,-0.124535
2024-01-01 00:00:12.480,0.160436,0.27065,7.704751,0.199767,0.258751,0.069338
2024-01-01 00:00:12.490,-1.067733,-0.031577,8.194703,0.001533,-0.31382,0.157032
2024-01-01 00:00:12.500,0.227067,0.590364,10.179233,-0.139533,-0.106018,0.001681
2024-01-01 00:00:12.510,0.572009,0.115657,9.000742,0.248595,0.01938,-0.342492
2024-01-01 00:00:12.520,-1.368201,0.115034,10.970284,0.132009,-0.181631,0.037093
2024-01-01 00:00:12.530,0.256696,-0.599302,10.871554,-0.192109,-0.08444,0.114215
2024-01-01 00:00:12.540,0.842488,0.128383,10.599647,0.012274,-0.04359,-0.142113
2024-01-01 00:00:12.550,-0.830116,0.568458,11.808109,-0.337927,-0.046782,-0.038123
2024-01-01 00:00:12.560,1.147803,-0.458998,9.718768,0.171473,0.371024,-0.173324
2024-01-01 00:00:12.570,0.287552,0.782048,10.522472,-0.065558,0.075645,-0.385522
2024-01-01 00:00:12.580,-0.483814,-0.050347,9.168328,-0.108928,0.095902,0.154051
2024-01-01 00:00:12.590,-0.038272,-0.487385,12.502702,-0.008219,0.107931,-0.000562
2024-01-01 00:00:12.600,0.383152,0.5477,11.98803,0.010077,0.122525,0.239651
2024-01-01 00:00:12.610,0.052159,-0.15745,9.823045,0.223733,-0.016577,0.128598
2024-01-01 00:00:12.620,0.369721,0.416974,10.234472,0.147773,-0.064149,-0.053131
2024-01-01 00:00:12.630,-0.631812,-0.160175,11.302509,-0.039102,0.033363,-0.012477
2024-01-01 00:00:12.640,0.116224,-0.032845,9.648441,0.190917,0.231361,0.084927
2024-01-01 00:00:12.650,-0.970162,0.270965,9.089027,0.100184,0.225248,0.145033
2024-01-01 00:00:12.660,-0.076329,0.159702,10.769641,-0.10665,-0.04808,0.048401
2024-01-01 00:00:12.670,-0.620307,-1.095547,9.896126,-0.03118,0.153569,0.165839
2024-01-01 00:00:12.680,-0.504757,-0.615563,10.010928,-0.037056,-0.038917,-0.0445
2024-01-01 00:00:12.690,0.848269,0.510246,8.89397,0.126315,0.006774,-0.149572
2024-01-01 00:00:12.700,0.748912,-0.072543,7.923996,-0.091756,-0.094705,-0.009721
2024-01-01 00:00:12.710,0.418021,-0.287528,10.069284,-0.097602,-0.036329,0.030778
2024-01-01 00:00:12.720,-0.7496,-0.745857,10.803648,0.492189,0.268266,-0.18023
2024-01-01 00:00:12.730,-0.217135,-0.592775,9.562064,0.234934,0.018484,-0.200508
2024-01-01 00:00:12.740,0.832488,-1.109967,11.3872,-0.19015,0.027057,0.067108
2024-01-01 00:00:12.750,0.097253,-0.055603,9.0371,0.142735,-0.289444,-0.060954
2024-01-01 00:00:12.760,1.59164,-0.328542,8.651935,0.029588,-0.061849,-0.024876
2024-01-01 00:00:12.770,0.269914,-0.530657,9.736181,0.097888,-0.048263,-0.053954
2024-01-01 00:00:12.780,0.131794,-0.0374,9.719313,0.034335,-0.165829,0.22809
2024-01-01 00:00:12.790,-0.212131,0.19982,10.655426,0.297411,0.004333,0.189264
2024-01-01 00:00:12.800,0.091642,1.149166,8.959091,0.086405,-0.085836,-0.185603
2024-01-01 00:00:12.810,-0.104632,-0.830024,11.312167,-0.015522,0.015999,-0.079919
2024-01-01 00:00:12.820,0.48594,0.6365,11.969675,0.260548,0.024301,0.127501
2024-01-01 00:00:12.830,0.656537,0.534233,9.76702,0.058321,-0.191151,0.09029
2024-01-01 00:00:12.840,-0.539385,-0.427722,11.182182,0.03037,-0.07974,-0.006219
2024-01-01 00:00:12.850,-0.913559,0.111577,8.649966,0.078506,0.015475,-0.17064
2024-01-01 00:00:12.860,-1.260096,-0.251241,10.990593,-0.023402,0.23686,-0.102381
2024-01-01 00:00:12.870,0.348609,0.101943,10.959909,0.002307,0.051344,-0.077515
2024-01-01 00:00:12.880,-0.757185,0.828513,10.758054,-0.146674,-0.132387,0.041549
2024-01-01 00:00:12.890,-1.477421,0.332478,9.792912,-0.187792,0.079801,0.255559
2024-01-01 00:00:12.900,0.266662,0.279226,6.566235,-0.249643,0.34151,-0.103032
2024-01-01 00:00:12.910,1.710821,-0.23624,9.105384,-0.347996,0.183341,-0.153905
2024-01-01 00:00:12.920,-0.004166,-0.814747,9.122744,-0.219929,0.109505,-0.016288
2024-01-01 00:00:12.930,0.575414,-0.114449,8.735876,-0.043567,0.145118,0.154761
2024-01-01 00:00:12.940,0.056155,0.662428,9.944223,0.025779,0.287991,-0.217032
2024-01-01 00:00:12.950,-0.067863,-0.838415,9.349978,-0.067824,0.215125,0.218045
2024-01-01 00:00:12.960,0.630716,-0.579244,8.904576,-0.588926,0.113352,-0.025805
2024-01-01 00:00:12.970,-0.199201,0.069321,8.647437,0.393647,0.213728,-0.110148
2024-01-01 00:00:12.980,0.183498,-0.540575,9.024367,0.27162,-0.21633,-0.240028
2024-01-01 00:00:12.990,0.220765,-0.435095,11.041406,0.11144,-0.300453,0.105978
2024-01-01 00:00:13.000,-0.458477,-0.232556,9.084194,0.476873,0.03142,-0.025676
2024-01-01 00:00:13.010,0.680789,-0.749724,9.244597,-0.244341,0.013736,0.025606
2024-01-01 00:00:13.020,-0.120066,-0.534793,9.308546,0.471906,-0.108782,-0.135122
2024-01-01 00:00:13.030,-0.51863,0.386182,10.182215,-0.241304,0.165171,-0.047864
2024-01-01 00:00:13.040,0.36818,-0.717746,10.310962,0.059684,-0.372573,-0.072987
2024-01-01 00:00:13.050,-0.616574,-0.877232,6.466967,-0.318459,-0.106954,-0.015089
2024-01-01 00:00:13.060,0.019339,-0.345884,10.931755,0.003674,-0.096991,-0.100433
2024-01-01 00:00:13.070,-0.006258,0.401844,11.387132,0.096542,-0.32726,-0.230127
2024-01-01 00:00:13.080,0.745196,-0.10811,8.656895,-0.038673,0.298946,0.409275
2024-01-01 00:00:13.090,2.765762,-0.255055,15.452417,0.178469,-0.27184,-0.204511
2024-01-01 00:00:13.100,2.422825,0.024353,16.025622,0.024754,-0.117668,0.027219
2024-01-01 00:00:13.110,3.001192,-0.958393,15.689908,-0.130604,0.181596,-0.265804
2024-01-01 00:00:13.120,3.39403,0.271593,16.765872,-0.141703,0.129209,-0.299557
2024-01-01 00:00:13.130,2.822797,0.210506,14.382715,0.202728,-0.221635,0.014674
2024-01-01 00:00:13.140,0.007104,-0.22471,8.582515,-0.163436,0.136498,0.026155
2024-01-01 00:00:13.150,-0.900248,0.552253,11.500039,0.228851,0.057957,0.189225
2024-01-01 00:00:13.160,-0.730934,-0.618995,8.790814,0.305678,0.466607,0.059932
2024-01-01 00:00:13.170,-0.20946,0.619222,11.175284,-0.417178,0.080788,-0.022472
2024-01-01 00:00:13.180,-0.418278,0.084817,10.200161,0.283232,-0.028248,-0.14244
2024-01-01 00:00:13.190,-0.128309,-0.184767,7.823424,0.515106,-0.1713,0.224852
2024-01-01 00:00:13.200,0.038876,-0.010911,10.507591,0.063001,-0.148849,0.139328
2024-01-01 00:00:13.210,0.363502,-0.058888,9.680801,0.149771,-0.165154,-0.186949
2024-01-01 00:00:13.220,-0.04838,0.669935,9.309897,0.259251,0.27422,0.005695
2024-01-01 00:00:13.230,0.333862,-0.591097,10.078963,-0.068871,0.003594,0.021608
2024-01-01 00:00:13.240,0.044246,-0.418623,10.331148,0.04557,0.113049,-0.051848
2024-01-01 00:00:13.250,-1.355664,0.56893,10.586936,-0.32855,0.30285,0.115778
2024-01-01 00:00:13.260,-0.644619,-0.326949,11.103722,0.034659,-0.471693,0.12476
2024-01-01 00:00:13.270,-0.09888,0.494393,10.258133,0.124528,0.255775,-0.028573
2024-01-01 00:00:13.280,-0.830153,0.93299,8.299554,0.129041,0.011079,-0.04213
2024-01-01 00:00:13.290,0.411701,-0.220585,9.289937,0.266356,0.08701,0.224844
2024-01-01 00:00:13.300,1.050478,0.374068,13.041467,-0.193701,-0.165681,0.139926
2024-01-01 00:00:13.310,0.836375,-0.633377,10.605491,-0.133152,-0.151025,0.010854
2024-01-01 00:00:13.320,-0.146475,0.414349,12.411477,0.473877,0.097769,-0.244381
2024-01-01 00:00:13.330,1.023011,0.109484,11.342187,-0.037582,0.47692,0.0516
2024-01-01 00:00:13.340,0.102023,0.259698,10.075499,0.050008,0.200663,0.104713
2024-01-01 00:00:13.350,-0.231325,-0.354419,10.140945,-0.016753,0.253105,-0.413178
2024-01-01 00:00:13.360,-0.420948,-0.911935,9.769835,-0.20542,-0.0384,0.03778
2024-01-01 00:00:13.370,-0.20757,0.276285,7.901891,0.405882,-0.120041,-0.062504
2024-01-01 00:00:13.380,-0.266386,-1.132808,9.829816,-0.131925,-0.156161,-0.033128
2024-01-01 00:00:13.390,0.116948,-0.174225,11.139321,-0.281821,-0.097655,-0.136107
2024-01-01 00:00:13.400,2.550194,0.516709,15.861595,-0.112685,-0.410556,-0.022228
2024-01-01 00:00:13.410,2.44209,0.105352,16.972324,-0.500427,-0.144984,0.208799
2024-01-01 00:00:13.420,2.739849,1.06964,17.455047,-0.162822,-0.112071,-0.06696
2024-01-01 00:00:13.430,3.257081,0.562785,15.521171,-0.242032,-0.035072,0.144836
2024-01-01 00:00:13.440,3.091632,-0.35899,16.024469,0.154357,0.02635,-0.12095
2024-01-01 00:00:13.450,-1.019011,0.014995,8.692333,-0.168354,0.07249,0.113813
2024-01-01 00:00:13.460,-1.752628,-0.026007,8.907262,0.221951,-0.002985,0.000248
2024-01-01 00:00:13.470,0.641177,-0.868615,8.396209,0.349621,-0.116289,0.052804
2024-01-01 00:00:13.480,-0.938021,-0.516279,8.821308,0.195294,-0.392672,0.001073
2024-01-01 00:00:13.490,-0.154245,-0.307858,11.368562,-0.053847,-0.115062,0.096244
2024-01-01 00:00:13.500,-0.80299,-1.117885,8.804806,0.035279,-0.19449,-0.385138
2024-01-01 00:00:13.510,-1.236609,0.026074,9.948852,-0.381246,0.093213,-0.212974
2024-01-01 00:00:13.520,0.371579,-0.13674,9.25785,-0.033445,0.181857,0.062562
2024-01-01 00:00:13.530,0.52097,-0.918419,11.104395,-0.21511,0.187714,-0.306531
2024-01-01 00:00:13.540,-0.39563,0.221913,11.249656,0.173582,0.151391,-0.079587
2024-01-01 00:00:13.550,-1.778103,0.393014,10.758749,0.643188,-0.026705,-0.008151
2024-01-01 00:00:13.560,-0.37486,0.124642,10.146136,0.124955,-0.104391,-0.124221
2024-01-01 00:00:13.570,0.268875,-0.177913,9.556297,-0.497785,-0.149421,-0.103734
2024-01-01 00:00:13.580,-1.014903,0.324702,8.501322,-0.090308,-0.3015,0.040737
2024-01-01 00:00:13.590,0.125831,0.373441,11.943995,0.030623,0.198371,0.151394
2024-01-01 00:00:13.600,-0.010506,0.168765,8.975879,0.021839,-0.034942,-0.143767
2024-01-01 00:00:13.610,0.397539,-0.452712,10.538684,-0.182703,-0.249268,-0.086259
2024-01-01 00:00:13.620,0.082062,0.151854,10.973403,0.061323,-0.165298,-0.109689
2024-01-01 00:00:13.630,-0.667769,0.656319,9.200302,-0.310625,-0.173395,-0.363207
2024-01-01 00:00:13.640,0.821147,-0.327549,10.949738,-0.236227,0.008605,0.021257
2024-01-01 00:00:13.650,-0.108791,1.151769,10.649106,0.161449,0.213494,0.140208
2024-01-01 00:00:13.660,-0.018738,-0.288571,11.707304,-0.253916,-0.069598,0.152496
2024-01-01 00:00:13.670,-0.640455,0.017791,9.294658,0.134553,-0.450507,-0.130615
2024-01-01 00:00:13.680,-0.304202,-0.369195,8.398121,-0.342366,-0.037836,-0.187755
2024-01-01 00:00:13.690,-0.607196,0.122576,9.254972,0.441206,-0.031239,0.003241
2024-01-01 00:00:13.700,-0.118684,-0.95648,10.039321,-0.193567,-0.044984,0.124391
2024-01-01 00:00:13.710,1.17466,-0.299777,9.873918,-0.055917,-0.125492,0.023228
2024-01-01 00:00:13.720,-0.941467,-0.599575,9.378005,0.082653,0.043488,0.043396
2024-01-01 00:00:13.730,-1.107307,0.074301,7.713701,-0.141337,0.013228,0.171275
2024-01-01 00:00:13.740,1.009591,0.545952,10.32659,0.035851,-0.004966,-0.11087
2024-01-01 00:00:13.750,-0.143648,0.354657,11.975634,0.143839,0.082528,-0.032996
2024-01-01 00:00:13.760,-0.459151,-1.302041,10.319748,0.240153,-0.085967,0.245191
2024-01-01 00:00:13.770,0.713635,1.121096,10.478831,0.197874,-0.097317,-0.029522
2024-01-01 00:00:13.780,-0.415604,0.162109,10.438545,-0.042953,0.276025,-0.190101
2024-01-01 00:00:13.790,1.253099,-0.426298,10.245957,-0.036658,0.111871,-0.100403
2024-01-01 00:00:13.800,0.465227,0.086263,10.832969,0.587277,0.165389,-0.140727
2024-01-01 00:00:13.810,-0.334829,0.096728,10.24412,0.237472,0.245221,0.053574
2024-01-01 00:00:13.820,1.480453,-0.3661,9.46668,-0.230456,0.105189,-0.134392
2024-01-01 00:00:13.830,-0.415672,0.108656,8.936004,0.024997,0.185678,0.040655
2024-01-01 00:00:13.840,0.509263,-0.333502,9.536627,-0.083786,-0.315869,-0.11041
2024-01-01 00:00:13.850,0.20539,-0.221995,10.154914,-0.033834,0.040831,-0.318507
2024-01-01 00:00:13.860,0.89332,-0.376767,9.462941,-0.307374,-0.036544,0.045993
2024-01-01 00:00:13.870,1.071587,-0.786537,10.155144,-0.102981,0.335537,0.02227
2024-01-01 00:00:13.880,0.021963,0.080064,10.292187,0.452889,0.185529,0.077664
2024-01-01 00:00:13.890,-0.517033,0.321329,10.724831,0.144769,-0.126089,-0.100948
2024-01-01 00:00:13.900,0.315656,0.282671,11.218509,-0.62279,0.074559,-0.116932
2024-01-01 00:00:13.910,-0.465082,0.450139,9.895652,0.304181,0.033536,0.06022
2024-01-01 00:00:13.920,1.381687,0.178063,8.374061,0.272407,0.090866,0.227853
2024-01-01 00:00:13.930,0.093697,-0.292466,9.431076,-0.089821,-0.203768,0.001675
2024-01-01 00:00:13.940,-0.250702,0.460975,9.858381,0.179316,0.072003,0.063688
2024-01-01 00:00:13.950,0.126737,-0.745277,7.794326,-0.21485,-0.04563,-0.048238
2024-01-01 00:00:13.960,-0.924465,-0.494469,11.334754,-0.117564,0.05649,-0.231545
2024-01-01 00:00:13.970,-0.66677,-0.529346,9.966331,0.374637,-0.144877,0.145114
2024-01-01 00:00:13.980,0.823784,0.592951,10.228725,-0.067933,-0.117013,0.136262
2024-01-01 00:00:13.990,-0.450794,0.517591,11.309348,-0.467433,0.234768,0.106616
2024-01-01 00:00:14.000,-0.718443,0.267531,9.118103,-0.015826,-0.21031,-0.027292
2024-01-01 00:00:14.010,0.368278,0.588489,10.440298,-0.019647,-0.195551,0.089558
2024-01-01 00:00:14.020,0.813689,-0.482726,9.689369,0.299592,-0.010316,0.134064
2024-01-01 00:00:14.030,0.493382,0.191379,9.607873,0.003584,-0.154378,0.243024
2024-01-01 00:00:14.040,0.683538,-0.068721,8.962133,-0.105396,-0.177006,0.148279
2024-01-01 00:00:14.050,-0.519351,0.464938,11.638832,0.261264,0.021015,0.009573
2024-01-01 00:00:14.060,-0.975718,-0.063258,9.397701,0.030198,-0.301013,-0.196238
2024-01-01 00:00:14.070,1.03029,-0.211334,10.578012,-0.187506,-0.201592,0.023349
2024-01-01 00:00:14.080,-0.221439,0.296959,7.751242,0.288749,0.410819,0.038487
2024-01-01 00:00:14.090,-0.172134,0.481017,11.105627,0.048415,0.091895,0.106354
2024-01-01 00:00:14.100,0.911473,-0.366922,10.965328,0.000731,-0.149313,0.203084
2024-01-01 00:00:14.110,0.381713,-0.033531,9.916983,0.044477,0.083643,-0.014273
2024-01-01 00:00:14.120,0.312853,-0.581084,9.560817,-0.267667,0.113466,0.315148
2024-01-01 00:00:14.130,1.485733,-1.371435,10.2492,-0.131913,0.198883,-0.263893
2024-01-01 00:00:14.140,-0.441614,0.110052,12.323092,0.000896,-0.025431,0.062901
2024-01-01 00:00:14.150,0.63673,0.334289,7.873966,-0.048666,0.1953,-0.119778
2024-01-01 00:00:14.160,0.039125,0.143875,10.668666,0.318107,-0.407689,-0.286083
2024-01-01 00:00:14.170,0.184321,-1.070309,8.809044,0.054351,-0.211262,-0.030266
2024-01-01 00:00:14.180,1.048911,-0.192616,9.78813,0.213726,0.032774,-0.218576
2024-01-01 00:00:14.190,0.348502,-1.217873,9.537828,0.002349,0.065927,-0.024214
2024-01-01 00:00:14.200,0.369406,0.751966,9.339707,0.264072,-0.182356,0.005215
2024-01-01 00:00:14.210,0.736008,-0.596244,9.798509,0.099382,0.051884,0.167781
2024-01-01 00:00:14.220,-0.250449,0.689217,8.56468,0.003355,-0.124768,-0.226138
2024-01-01 00:00:14.230,-0.575908,0.519282,10.94004,-0.003321,-0.055392,0.136267
2024-01-01 00:00:14.240,-0.717,-0.494424,7.84003,-0.23861,0.204955,0.014712
2024-01-01 00:00:14.250,-1.349412,-0.621899,10.402661,0.126729,0.181787,0.154327
2024-01-01 00:00:14.260,1.411072,0.192353,9.451464,-0.010051,-0.199412,-0.064763
2024-01-01 00:00:14.270,-0.757077,-0.463534,8.524324,-0.125498,-0.21145,-0.199837
2024-01-01 00:00:14.280,-0.151835,0.056264,10.032217,0.276615,-0.082235,-0.182625
2024-01-01 00:00:14.290,-0.189963,-0.265072,8.100468,-0.312554,-0.005349,-0.193771
2024-01-01 00:00:14.300,0.210958,-0.977856,9.853606,-0.105624,-0.13158,0.071672
2024-01-01 00:00:14.310,0.5598,-1.224527,8.247681,0.25693,0.208128,0.221538
2024-01-01 00:00:14.320,0.5905,0.12445,10.316477,0.078881,0.069478,-0.084743
2024-01-01 00:00:14.330,-0.400137,-0.308295,8.795056,-0.011965,0.081217,0.09437
2024-01-01 00:00:14.340,-0.114687,-0.303646,9.314809,0.062751,-0.253308,-0.228516
2024-01-01 00:00:14.350,0.19392,0.382029,10.132756,0.044854,0.233458,0.027048
2024-01-01 00:00:14.360,-0.170664,0.64422,8.961749,-0.379166,-0.564034,0.100284
2024-01-01 00:00:14.370,1.103041,-0.149627,9.746356,-0.087315,0.166811,-0.217219
2024-01-01 00:00:14.380,0.336932,-0.186989,8.147814,0.40413,0.186862,-0.030583
2024-01-01 00:00:14.390,0.50431,0.274579,10.502701,-0.164831,-0.08648,0.107388
2024-01-01 00:00:14.400,0.454902,-0.744958,11.747875,-0.079575,0.254582,-0.440066
2024-01-01 00:00:14.410,0.805296,0.122511,12.875845,-0.135405,-0.01262,0.200318
2024-01-01 00:00:14.420,0.124226,0.302985,9.910103,-0.021754,0.012486,0.053052
2024-01-01 00:00:14.430,-0.889951,0.373446,10.675448,-0.145781,0.067906,0.107509
2024-01-01 00:00:14.440,0.274286,-1.063277,7.854873,0.121685,0.637315,-0.061908
2024-01-01 00:00:14.450,-0.446994,-0.417984,11.460002,0.049328,0.268887,-0.258408
2024-01-01 00:00:14.460,-0.362763,-0.482167,10.662299,0.193387,0.140226,0.080109
2024-01-01 00:00:14.470,0.402392,0.054838,9.278641,-0.262735,-0.182561,-0.012389
2024-01-01 00:00:14.480,0.849772,0.263929,11.168425,-0.085085,0.028718,0.004817
2024-01-01 00:00:14.490,0.014598,0.821694,9.530585,-0.056431,-0.162625,0.163141
2024-01-01 00:00:14.500,0.211937,-0.271736,9.307088,0.113912,0.164422,0.11431
2024-01-01 00:00:14.510,1.168145,-0.273167,10.331918,-0.198305,0.028093,0.288186
2024-01-01 00:00:14.520,0.165217,0.63117,8.642437,0.228913,-0.224904,0.023078
2024-01-01 00:00:14.530,1.785405,0.162821,10.931744,0.296604,0.016225,-0.103682
2024-01-01 00:00:14.540,0.388081,0.695941,8.650523,-0.247218,-0.169883,-0.028263
2024-01-01 00:00:14.550,-1.208323,0.158512,8.65704,-0.122718,0.030243,0.06235
2024-01-01 00:00:14.560,0.516981,-0.635257,8.811161,-0.132983,-0.171815,0.152378
2024-01-01 00:00:14.570,0.26157,-0.731887,10.643931,0.658097,0.005498,-0.220055
2024-01-01 00:00:14.580,0.885093,-0.85178,9.132781,-0.107475,0.150094,0.001281
2024-01-01 00:00:14.590,0.461971,0.363466,8.329901,0.419406,-0.01061,0.241431
2024-01-01 00:00:14.600,-0.095015,0.65254,9.144963,-0.316658,-0.078178,-0.036031
2024-01-01 00:00:14.610,-0.840175,1.0153,9.774817,-0.247413,0.040655,0.139652
2024-01-01 00:00:14.620,-0.143442,0.462865,8.513292,-0.171651,0.139437,0.073968
2024-01-01 00:00:14.630,-0.58367,0.638398,8.545454,-0.211422,-0.221437,0.143379
2024-01-01 00:00:14.640,-0.398384,-0.318429,12.128203,-0.066975,0.052131,-0.121464
2024-01-01 00:00:14.650,0.403912,-0.634872,8.865099,-0.177195,0.263508,-0.12081
2024-01-01 00:00:14.660,1.145972,0.466694,9.455299,-0.204835,0.114731,0.003041
2024-01-01 00:00:14.670,0.270843,0.229307,9.406774,0.289618,0.011551,-0.229833
2024-01-01 00:00:14.680,-0.820675,0.058987,9.34735,0.305948,0.127948,-0.040461
2024-01-01 00:00:14.690,0.305109,0.212667,10.492239,0.237324,0.090499,0.037931
2024-01-01 00:00:14.700,0.821188,0.177429,10.851061,0.131,0.15072,0.267695
2024-01-01 00:00:14.710,-0.418464,0.704815,9.474062,0.023186,-0.404786,0.060408
2024-01-01 00:00:14.720,-0.091969,0.710947,8.452347,-0.124258,-0.310691,0.093784
2024-01-01 00:00:14.730,0.01008,0.298777,11.209335,-0.238289,0.200966,0.174671
2024-01-01 00:00:14.740,-0.538636,0.464346,9.705315,0.090749,-0.301056,-0.144699
2024-01-01 00:00:14.750,0.444882,0.28222,11.709893,-0.293408,0.080308,-0.024762
2024-01-01 00:00:14.760,-0.083001,-0.253182,7.344347,-0.24848,-0.07041,0.363812
2024-01-01 00:00:14.770,0.287904,0.415354,10.024553,0.288228,-0.199238,-0.011868
2024-01-01 00:00:14.780,-0.609042,-0.765578,11.91663,0.475162,0.06993,0.167465
2024-01-01 00:00:14.790,-0.300206,0.578586,9.422116,0.098324,0.040207,0.144561
2024-01-01 00:00:14.800,0.495734,-0.655793,9.562408,0.276614,0.422069,-0.221717
2024-01-01 00:00:14.810,-0.255857,0.156906,10.134472,-0.061462,-0.124962,0.046572
2024-01-01 00:00:14.820,1.185129,-0.46399,9.196442,-0.334419,0.288022,0.022012
2024-01-01 00:00:14.830,-0.27425,0.303811,9.467345,0.153043,0.070485,0.049494
2024-01-01 00:00:14.840,0.15419,-0.018625,9.439079,0.142322,-0.132204,-0.113117
2024-01-01 00:00:14.850,0.63999,-0.875521,9.121092,0.017917,0.159849,-0.167538
2024-01-01 00:00:14.860,-0.973353,0.230964,11.159284,-0.060594,0.113148,-0.071402
2024-01-01 00:00:14.870,-1.208355,-0.317279,10.316264,0.240553,0.007169,-0.014669
2024-01-01 00:00:14.880,-1.046982,0.48375,10.08519,-0.246433,0.053259,0.177748
2024-01-01 00:00:14.890,0.866448,0.000728,10.697811,-0.193445,-0.119397,0.272597
2024-01-01 00:00:14.900,-0.378713,0.217086,9.519737,-0.252027,-0.165157,0.20949
2024-01-01 00:00:14.910,1.755564,-0.525705,8.959924,0.021243,0.151888,0.129028
2024-01-01 00:00:14.920,-0.387215,-0.323543,9.148319,-0.271973,-0.044788,-0.150651
2024-01-01 00:00:14.930,2.566648,-0.251793,16.521958,-0.171061,-0.016017,-0.061334
2024-01-01 00:00:14.940,3.498273,0.47033,15.356986,-0.176439,0.055964,0.031489
