timestamp,acc_x,acc_y,acc_z,gyro_x,gyro_y,gyro_z
2024-01-01 00:00:00.000,0.287225,-0.882552,8.779252,0.191351,0.234963,-0.021513
2024-01-01 00:00:00.010,-0.079951,-0.398014,9.226263,0.268353,-0.375796,-0.004898
2024-01-01 00:00:00.020,0.374526,-0.191334,8.938406,0.124672,-0.065559,0.009644
2024-01-01 00:00:00.030,0.880692,0.873244,9.302994,-0.485624,-0.008332,0.142029
2024-01-01 00:00:00.040,-0.135399,0.257461,9.611868,-0.038856,0.003182,-0.112083
2024-01-01 00:00:00.050,-0.13539,-0.617794,10.584535,-0.288927,0.036099,-0.126952
2024-01-01 00:00:00.060,0.91318,0.22484,9.512864,-0.050651,0.122088,0.185493
2024-01-01 00:00:00.070,0.443769,-0.715783,8.342979,0.245001,-0.007081,-0.069397
2024-01-01 00:00:00.080,-0.271474,0.500853,10.864791,0.076288,-0.073612,-0.189455
2024-01-01 00:00:00.090,0.313735,-0.217942,9.035524,0.287023,-0.081518,-0.072769
2024-01-01 00:00:00.100,-0.267971,-0.043316,9.755672,0.085438,-0.122303,-0.049508
2024-01-01 00:00:00.110,-0.269308,0.613314,10.223136,-0.324581,0.157509,0.233244
2024-01-01 00:00:00.120,0.139915,-0.595442,9.99468,-0.630212,-0.129306,0.138724
2024-01-01 00:00:00.130,-1.106354,-0.646307,10.822335,0.037202,0.169354,0.172128
2024-01-01 00:00:00.140,-0.997434,-0.269973,10.253174,-0.053482,0.0038,0.122996
2024-01-01 00:00:00.150,-0.325143,0.480354,9.013116,-0.244236,-0.104251,0.141937
2024-01-01 00:00:00.160,-0.58567,-0.702849,11.825606,-0.425157,0.123681,-0.103212
2024-01-01 00:00:00.170,0.181714,-1.310155,9.989797,-0.183686,-0.145491,-0.02979
2024-01-01 00:00:00.180,-0.525065,-0.208706,9.673681,-0.048623,0.127637,-0.148487
2024-01-01 00:00:00.190,-0.816665,0.255235,10.701824,0.166469,0.042545,-0.031573
2024-01-01 00:00:00.200,0.847511,0.555241,10.040792,0.047158,-0.119265,0.102616
2024-01-01 00:00:00.210,-0.130555,-0.214258,10.179366,0.402017,0.105727,0.020187
2024-01-01 00:00:00.220,0.039048,-0.190326,12.115769,-0.258901,0.109318,0.196722
2024-01-01 00:00:00.230,-0.823861,0.533794,9.555458,0.220265,0.231504,-0.171212
2024-01-01 00:00:00.240,-0.314789,-0.864943,9.516008,0.011825,0.193229,0.075036
2024-01-01 00:00:00.250,0.064141,-0.17973,9.917858,0.173667,0.098255,-0.187245
2024-01-01 00:00:00.260,-0.665562,0.08809,10.801367,-0.109129,-0.225518,0.014126
2024-01-01 00:00:00.270,0.217247,0.207809,8.416155,0.26792,0.489717,0.11105
2024-01-01 00:00:00.280,-0.347319,-0.235837,7.991468,0.073806,-0.280723,-0.032175
2024-01-01 00:00:00.290,-0.168672,0.015932,9.266801,-0.169861,0.189853,0.082669
2024-01-01 00:00:00.300,-0.347937,-1.1511,8.298294,-0.003006,0.086257,-0.14396
2024-01-01 00:00:00.310,1.07108,-0.304506,9.416946,-0.059889,-0.234828,-0.249553
2024-01-01 00:00:00.320,-0.007805,0.209793,10.274913,0.122295,-0.02486,0.083554
2024-01-01 00:00:00.330,-0.611621,-0.454409,8.985879,-0.294944,-0.015751,0.261602
2024-01-01 00:00:00.340,0.475637,0.027286,8.4899,-0.007338,0.261117,-0.149407
2024-01-01 00:00:00.350,-0.705953,0.206723,9.874151,0.098827,-0.142662,0.183329
2024-01-01 00:00:00.360,0.120775,-0.158463,10.608025,0.008256,-0.052389,0.006514
2024-01-01 00:00:00.370,-1.133179,0.078857,8.241811,0.336735,-0.467214,-0.200354
2024-01-01 00:00:00.380,-0.768024,-0.44536,10.568879,0.193506,0.346953,-0.169726
2024-01-01 00:00:00.390,0.113835,-0.095578,10.566172,-0.00187,-0.214094,0.002368
2024-01-01 00:00:00.400,0.427018,0.282286,10.69272,0.054172,0.065382,-0.060669
2024-01-01 00:00:00.410,0.099094,0.072616,10.937338,0.073916,-0.020282,-0.196937
2024-01-01 00:00:00.420,-0.066874,-0.271329,11.847303,0.100825,-0.0196,-0.254106
2024-01-01 00:00:00.430,-0.174113,0.103723,9.480544,-0.456414,0.161972,-0.127008
2024-01-01 00:00:00.440,-0.854955,0.330578,9.911376,-0.075382,0.334252,0.029071
2024-01-01 00:00:00.450,-0.41625,-0.948303,9.424711,-0.37111,0.050299,-0.00096
2024-01-01 00:00:00.460,-0.266364,0.536188,9.811829,0.31957,0.131016,-0.075186
2024-01-01 00:00:00.470,0.611281,-0.155551,11.228214,-0.015212,0.065778,0.030283
2024-01-01 00:00:00.480,2.254697,0.196832,14.219593,-0.048335,0.203506,0.156004
2024-01-01 00:00:00.490,1.036522,0.553846,14.667357,0.224199,-0.092583,0.059119
2024-01-01 00:00:00.500,2.243402,-0.634536,16.738168,0.105581,0.215078,-0.018196
2024-01-01 00:00:00.510,1.833326,-0.328187,16.407738,-0.282159,0.2221,0.139211
2024-01-01 00:00:00.520,1.66457,-0.133483,15.128031,-0.017726,0.216507,-0.143978
2024-01-01 00:00:00.530,0.353702,-0.362564,10.600493,-0.083792,-0.13203,-0.033738
2024-01-01 00:00:00.540,0.596175,0.802582,10.125693,-0.436133,-0.033668,-0.030163
2024-01-01 00:00:00.550,0.538513,-0.396343,11.198054,-0.172569,0.047893,-0.185543
2024-01-01 00:00:00.560,-0.485278,-0.256996,9.878936,-0.045885,-0.274168,-0.062981
2024-01-01 00:00:00.570,-0.178802,0.09455,10.758915,-0.028738,0.318984,-0.311244
2024-01-01 00:00:00.580,0.191553,-0.556114,12.254389,-0.370558,-0.002455,0.286827
2024-01-01 00:00:00.590,0.564109,-0.183042,10.363361,0.287916,0.056786,-0.140612
2024-01-01 00:00:00.600,-0.277083,0.146854,9.855638,-0.025526,-0.115401,0.237917
2024-01-01 00:00:00.610,-0.107357,-0.153981,10.478408,0.009388,-0.265376,0.005713
2024-01-01 00:00:00.620,-0.639738,-0.043201,9.472042,0.10016,-0.120806,0.08473
2024-01-01 00:00:00.630,-0.691706,-0.244869,12.019348,-0.197019,0.043841,-0.07332
2024-01-01 00:00:00.640,0.469843,-0.700594,9.976602,0.114089,0.134686,0.031189
2024-01-01 00:00:00.650,0.784246,0.148769,9.557482,-0.091769,0.032358,0.097573
2024-01-01 00:00:00.660,-0.04164,0.811832,9.036821,-0.224146,0.069345,0.099683
2024-01-01 00:00:00.670,0.580293,0.008513,10.825148,0.143362,-0.067405,0.116216
2024-01-01 00:00:00.680,0.209116,0.104207,10.612322,0.372918,0.09925,-0.05525
2024-01-01 00:00:00.690,-0.37304,0.320454,9.349848,0.181207,0.296567,-0.072054
2024-01-01 00:00:00.700,0.208977,-0.587192,10.343333,0.230744,0.140958,-0.239126
2024-01-01 00:00:00.710,0.88937,0.787583,8.414284,-0.130158,0.161908,0.078483
2024-01-01 00:00:00.720,-0.020716,0.093597,9.981135,-0.399405,0.058803,0.162357
2024-01-01 00:00:00.730,0.904755,0.754897,10.22889,0.372534,-0.300631,0.242397
2024-01-01 00:00:00.740,-1.514868,-0.339101,11.389622,0.513629,-0.208933,0.045776
2024-01-01 00:00:00.750,0.475265,0.841035,9.096838,0.385702,0.090975,-0.114972
2024-01-01 00:00:00.760,0.050335,0.358587,8.627268,-0.083946,-0.002188,-0.254564
2024-01-01 00:00:00.770,-0.172901,0.255836,8.98155,-0.288659,0.087969,0.15625
2024-01-01 00:00:00.780,0.053061,0.10826,8.573407,-0.266421,0.335285,-0.269441
2024-01-01 00:00:00.790,-1.149312,-0.114969,11.046675,-0.420933,0.145207,-0.051091
2024-01-01 00:00:00.800,-0.127025,0.555366,11.242801,-0.026845,0.251777,-0.033646
2024-01-01 00:00:00.810,0.2065,0.06493,10.106264,0.401419,0.018936,-0.010418
2024-01-01 00:00:00.820,0.854592,-0.909966,10.939942,-0.035416,-0.161443,0.00537
2024-01-01 00:00:00.830,-0.29969,-0.51681,9.933938,0.075581,-0.011573,0.020722
2024-01-01 00:00:00.840,-0.467511,-0.085972,9.722003,0.343899,-0.16095,-0.362304
2024-01-01 00:00:00.850,-0.290141,0.143406,9.501874,-0.101024,0.311659,0.002198
2024-01-01 00:00:00.860,0.529331,-0.026178,9.522826,0.508883,0.158078,-0.334436
2024-01-01 00:00:00.870,0.1901,0.563896,8.377974,0.498024,0.104102,0.109833
2024-01-01 00:00:00.880,-0.306334,-0.90258,10.054489,-0.032778,0.247189,-0.083269
2024-01-01 00:00:00.890,0.296797,0.066424,9.772683,-0.144384,-0.404011,-0.323556
2024-01-01 00:00:00.900,0.056135,-0.840997,10.499608,0.17431,0.117628,-0.122131
2024-01-01 00:00:00.910,0.560119,0.351443,9.896528,-0.086881,-0.262129,-0.085511
2024-01-01 00:00:00.920,-0.405962,-0.043697,9.659467,-0.289139,-0.001451,0.178605
2024-01-01 00:00:00.930,-0.189471,0.194112,9.003972,0.32031,-0.062342,0.029496
2024-01-01 00:00:00.940,-0.226737,-0.399632,9.876756,0.304112,0.132347,0.051667
2024-01-01 00:00:00.950,-0.846278,0.59188,10.493017,0.038878,0.045637,0.177183
2024-01-01 00:00:00.960,0.171232,0.481902,8.752183,-0.315716,0.269023,-0.014422
2024-01-01 00:00:00.970,0.150955,0.269948,9.890931,-0.307382,-0.120379,0.113128
2024-01-01 00:00:00.980,0.002957,-0.059915,10.025611,0.026807,0.141823,0.102579
2024-01-01 00:00:00.990,-0.13565,0.268242,9.145646,-0.124968,0.032445,-0.19297
2024-01-01 00:00:01.000,-0.818438,-0.327009,9.266115,-0.085273,-0.327058,0.220948
2024-01-01 00:00:01.010,-0.243238,0.39578,10.023361,0.255491,-0.183723,-0.213045
2024-01-01 00:00:01.020,-0.198175,0.76305,8.761359,0.183295,-0.029976,0.137605
2024-01-01 00:00:01.030,-0.463917,0.495264,10.133749,0.344536,0.222458,-0.227561
2024-01-01 00:00:01.040,-0.093263,-0.337514,8.981618,-0.247656,0.092745,0.090186
2024-01-01 00:00:01.050,0.233642,0.167192,10.793352,-0.085798,-0.2335,0.279287
2024-01-01 00:00:01.060,1.090687,-0.598207,11.972958,0.189745,-0.028063,-0.031947
2024-01-01 00:00:01.070,0.10095,0.264788,9.013628,0.11202,0.403561,-0.038453
2024-01-01 00:00:01.080,0.148929,0.208449,10.304249,0.383095,0.022245,0.091566
2024-01-01 00:00:01.090,-0.043048,-0.864977,9.137618,0.105134,-0.065465,-0.049409
2024-01-01 00:00:01.100,-1.109529,-0.537441,10.773091,0.462027,0.098348,0.272742
2024-01-01 00:00:01.110,-0.015332,-0.13098,8.639383,0.135004,0.152679,0.028829
2024-01-01 00:00:01.120,0.034828,-0.139178,10.254639,0.265542,-0.091234,-0.048025
2024-01-01 00:00:01.130,1.42437,-0.559504,9.002311,-0.080879,0.100515,-0.081043
2024-01-01 00:00:01.140,-0.111233,0.179942,9.618498,0.003572,-0.065778,-0.139942
2024-01-01 00:00:01.150,0.17437,0.116332,8.856095,0.227736,0.143866,-0.094163
2024-01-01 00:00:01.160,-0.020072,-0.089869,10.570839,0.403245,0.033939,-0.052601
2024-01-01 00:00:01.170,-0.675788,-0.349629,9.035626,0.182309,0.096394,-0.073146
2024-01-01 00:00:01.180,0.660837,0.485132,10.320677,-0.020793,-0.151837,-0.098726
2024-01-01 00:00:01.190,0.434805,0.765791,9.491641,0.344334,-0.164257,0.314826
2024-01-01 00:00:01.200,0.457414,-0.223696,9.70409,-0.547995,0.189099,-0.154514
2024-01-01 00:00:01.210,-0.525853,-0.283188,9.946704,-0.355559,-0.015879,0.021995
2024-01-01 00:00:01.220,0.811166,0.227233,9.10516,0.170409,0.057007,0.088878
2024-01-01 00:00:01.230,-0.81062,-0.165624,10.004632,0.003527,-0.061279,0.094516
2024-01-01 00:00:01.240,0.33935,-0.064485,11.225866,0.151378,0.179745,-0.008791
2024-01-01 00:00:01.250,1.266631,0.342164,9.090107,0.016102,-0.121562,-0.036105
2024-01-01 00:00:01.260,-0.572778,-0.883268,10.894159,0.142736,-0.02712,0.067732
2024-01-01 00:00:01.270,-0.327462,0.609847,11.19604,-0.203601,0.157199,0.039978
2024-01-01 00:00:01.280,0.057623,0.033622,9.054893,0.142622,0.234594,-0.038844
2024-01-01 00:00:01.290,-0.291135,-0.190357,8.463783,0.248604,-0.104752,-0.234282
2024-01-01 00:00:01.300,-0.896671,-0.04128,10.089374,0.305138,0.391937,-0.070189
2024-01-01 00:00:01.310,0.039647,-0.01738,9.303539,0.503389,0.062648,-0.171983
2024-01-01 00:00:01.320,-0.614277,-0.800854,11.538832,0.061025,-0.208586,-0.100074
2024-01-01 00:00:01.330,0.273855,0.691558,9.842204,0.068478,0.07381,0.004983
2024-01-01 00:00:01.340,-0.531657,0.019117,9.067805,-0.380793,-0.0766,0.05381
2024-01-01 00:00:01.350,0.89625,0.204933,8.748648,-0.132853,0.086814,0.267068
2024-01-01 00:00:01.360,-0.452916,0.440187,10.81838,-0.048271,-0.008571,-0.080611
2024-01-01 00:00:01.370,-0.186232,-0.47239,9.281541,0.26258,0.014855,0.116194
2024-01-01 00:00:01.380,0.470416,0.219028,9.85055,-0.15275,-0.182319,0.045894
2024-01-01 00:00:01.390,-0.711747,-0.123811,10.694309,0.199085,0.198012,0.1944
2024-01-01 00:00:01.400,0.131529,0.391716,9.361964,-0.000405,-0.231225,0.086434
2024-01-01 00:00:01.410,0.755855,-0.984055,9.767507,-0.044292,-0.221753,-0.151272
2024-01-01 00:00:01.420,-0.929527,-0.045841,9.794671,0.062223,0.073472,-0.258457
2024-01-01 00:00:01.430,0.106765,-0.278865,10.442212,-0.097789,0.320569,0.046689
2024-01-01 00:00:01.440,0.150277,0.199965,10.356557,-0.107259,-0.070519,-0.079268
2024-01-01 00:00:01.450,0.452089,0.217442,9.606351,-0.426196,0.140194,-0.147047
2024-01-01 00:00:01.460,-0.715267,-0.327348,9.868888,-0.061989,0.214668,-0.190137
2024-01-01 00:00:01.470,-0.763554,-0.329452,9.46603,-0.119992,0.162937,0.024146
2024-01-01 00:00:01.480,0.301813,-0.051194,8.442913,-0.128995,-0.062242,0.226156
2024-01-01 00:00:01.490,0.171731,-0.414787,10.048332,0.104218,-0.218209,-0.061301
2024-01-01 00:00:01.500,0.144847,0.389502,11.560656,0.164658,-0.44151,0.088541
2024-01-01 00:00:01.510,0.200334,-0.170795,8.992383,0.058049,-0.052568,-0.01534
2024-01-01 00:00:01.520,-0.393224,-1.344773,9.094793,0.248854,0.235617,-0.193407
2024-01-01 00:00:01.530,0.134301,-0.173393,9.004403,0.14389,-0.224833,0.110222
2024-01-01 00:00:01.540,0.169469,-0.48043,10.480392,-0.073764,0.140042,-0.164204
2024-01-01 00:00:01.550,-0.413074,-0.754628,10.224939,-0.115714,-0.190031,0.003244
2024-01-01 00:00:01.560,1.078884,-0.572434,9.663321,0.078206,0.021215,-0.051228
2024-01-01 00:00:01.570,0.273994,0.050612,8.960649,0.143442,0.141558,0.133962
2024-01-01 00:00:01.580,-0.688871,0.614629,9.895467,0.349461,-0.131899,-0.158723
2024-01-01 00:00:01.590,0.379652,0.144879,8.362412,0.297793,0.034097,0.05863
2024-01-01 00:00:01.600,-0.56361,-0.280568,9.942698,-0.135368,-0.083018,-0.12597
2024-01-01 00:00:01.610,0.455132,0.210901,10.616334,-0.025502,0.14103,-0.076666
2024-01-01 00:00:01.620,0.669958,-0.212375,8.652391,0.167754,0.047063,-0.54528
2024-01-01 00:00:01.630,-0.47456,-0.321322,8.392114,0.266999,0.011302,0.313815
2024-01-01 00:00:01.640,2.613072,-0.534008,16.925296,0.234742,0.31167,0.082584
2024-01-01 00:00:01.650,2.294691,-0.810396,14.898,-0.015969,0.132461,-0.115102
2024-01-01 00:00:01.660,2.531356,-0.180379,16.514979,-0.313506,-0.13807,-0.168698
2024-01-01 00:00:01.670,3.152821,0.073116,15.321521,-0.249734,-0.017173,-0.074347
2024-01-01 00:00:01.680,1.914104,-0.044698,15.314159,0.068158,-0.01518,0.107532
2024-01-01 00:00:01.690,-0.435848,-0.192426,10.215619,0.085556,0.016064,-0.283813
2024-01-01 00:00:01.700,-0.514362,-0.437502,8.992124,-0.27467,0.504902,-0.021238
2024-01-01 00:00:01.710,-0.471742,0.281375,9.932586,0.011142,0.07417,0.265596
2024-01-01 00:00:01.720,-0.044584,-0.609305,9.457046,0.157806,-0.407181,-0.170092
2024-01-01 00:00:01.730,0.197271,0.358991,8.588279,-0.287807,-0.10856,0.012058
2024-01-01 00:00:01.740,0.159996,-0.463626,10.122238,0.276249,-0.386474,0.330496
2024-01-01 00:00:01.750,0.478319,-0.348077,9.566388,-0.094383,-0.06596,0.094823
2024-01-01 00:00:01.760,0.007518,-0.678535,9.664721,0.314403,-0.397462,0.018889
2024-01-01 00:00:01.770,0.840506,-0.231949,8.690359,-0.133363,-0.174318,0.075995
2024-01-01 00:00:01.780,-0.153038,0.45118,11.282364,-0.256656,-0.304144,-0.06013
2024-01-01 00:00:01.790,1.572938,0.23853,10.621136,-0.114534,0.076832,0.194945
2024-01-01 00:00:01.800,0.361792,0.452618,10.702037,-0.023787,0.000108,-0.0599
2024-01-01 00:00:01.810,-0.495651,0.241543,9.527403,-0.09712,0.060592,-0.293877
2024-01-01 00:00:01.820,-0.619244,-0.510558,8.21016,-0.054,-0.02091,-0.058695
2024-01-01 00:00:01.830,0.27899,-0.153023,11.616839,0.083491,-0.27886,-0.14501
2024-01-01 00:00:01.840,-0.129217,-0.36092,9.753473,-0.042795,0.102704,-0.042179
2024-01-01 00:00:01.850,0.412871,0.615524,9.11721,-0.016528,0.384445,-0.038863
2024-01-01 00:00:01.860,0.27365,-0.553634,10.195625,-0.427307,0.081843,0.179613
2024-01-01 00:00:01.870,-0.042113,0.413425,10.88982,0.097925,-0.085185,0.104294
2024-01-01 00:00:01.880,-0.489658,0.41308,9.788674,-0.022301,-0.285613,0.03949
2024-01-01 00:00:01.890,-0.87596,0.846382,10.992938,0.402573,-0.181613,-0.000442
2024-01-01 00:00:01.900,-0.258197,-0.189521,10.811992,-0.234891,0.090608,-0.158829
2024-01-01 00:00:01.910,0.495213,0.32952,8.814132,-0.452074,0.214624,-0.327176
2024-01-01 00:00:01.920,0.1238,1.055492,9.186609,0.154517,0.052173,0.016974
2024-01-01 00:00:01.930,-0.720348,-0.285721,10.695913,0.086632,0.159977,0.119196
2024-01-01 00:00:01.940,0.100142,-0.71011,7.300291,-0.252108,0.141536,-0.01625
2024-01-01 00:00:01.950,0.22281,-0.869693,9.671724,-0.382437,0.101307,-0.080228
2024-01-01 00:00:01.960,-0.511091,0.329701,8.486195,0.384349,-0.131695,0.069675
2024-01-01 00:00:01.970,0.088892,-0.871145,9.369092,0.353528,0.034785,-0.0125
2024-01-01 00:00:01.980,0.033659,-0.172235,9.533532,-0.621864,-0.169676,0.252862
2024-01-01 00:00:01.990,-0.660923,0.202301,9.478552,-0.114556,0.003486,0.184909
2024-01-01 00:00:02.000,0.206891,0.085662,9.299048,0.416048,0.066173,0.143926
2024-01-01 00:00:02.010,0.324274,0.196811,8.794923,-0.119016,0.335757,0.11366
2024-01-01 00:00:02.020,0.626274,0.102831,11.930476,-0.122653,-0.261946,-0.193525
2024-01-01 00:00:02.030,0.609361,0.591603,11.537776,-0.07069,0.096302,0.099449
2024-01-01 00:00:02.040,-0.796637,-0.440542,8.734857,-0.280224,0.296247,0.056449
2024-01-01 00:00:02.050,-0.542297,-0.313178,11.273774,-0.426194,0.15177,0.090964
2024-01-01 00:00:02.060,0.297819,-0.357432,9.440415,0.263137,0.166589,0.073891
2024-01-01 00:00:02.070,0.297097,0.384047,9.929524,-0.460734,0.117539,0.067914
2024-01-01 00:00:02.080,2.353826,0.416524,15.405459,0.061818,0.259667,0.40513
2024-01-01 00:00:02.090,4.283842,0.208737,14.853601,0.221645,-0.217496,-0.011428
2024-01-01 00:00:02.100,2.386117,0.547484,16.37426,-0.362807,-0.277185,0.140451
2024-01-01 00:00:02.110,2.712641,-0.544962,15.58047,-0.231067,-0.001267,-0.070648
2024-01-01 00:00:02.120,2.607652,0.771258,15.023095,0.303295,-0.432232,0.118596
2024-01-01 00:00:02.130,0.376667,0.70465,8.602994,0.133223,0.246129,0.140898
2024-01-01 00:00:02.140,-0.182304,0.340299,8.983246,-0.154321,0.244143,0.054664
2024-01-01 00:00:02.150,0.438874,0.82426,8.291395,0.300562,-0.08667,0.250387
2024-01-01 00:00:02.160,-0.446886,-0.766354,9.821309,0.301634,-0.074154,-0.132641
2024-01-01 00:00:02.170,-0.13694,-0.24261,8.702845,0.067263,-0.014469,-0.073083
2024-01-01 00:00:02.180,-0.280661,-0.340151,9.564303,-0.22504,0.010404,0.031857
2024-01-01 00:00:02.190,0.047344,0.333756,11.077618,-0.103362,0.025435,0.132121
2024-01-01 00:00:02.200,1.338451,-0.485795,10.919592,0.071597,0.111646,0.026914
2024-01-01 00:00:02.210,-1.079746,0.350417,9.780137,-0.047149,-0.034525,0.192864
2024-01-01 00:00:02.220,0.39683,0.63401,9.729429,0.234739,0.188639,-0.099253
2024-01-01 00:00:02.230,-0.932553,0.321601,11.54926,-0.382444,0.08919,-0.171087
2024-01-01 00:00:02.240,-0.272895,0.131263,10.291804,-0.373566,-0.121393,0.046219
2024-01-01 00:00:02.250,0.629686,-0.45699,9.506713,0.045218,0.267023,-0.011577
2024-01-01 00:00:02.260,0.03717,-0.391753,8.490648,-0.122886,-0.271651,0.08143
2024-01-01 00:00:02.270,-0.623206,0.578074,10.174412,-0.156762,-0.018433,-0.00411
2024-01-01 00:00:02.280,-0.413624,0.360527,10.57729,-0.442014,0.193383,-0.051003
2024-01-01 00:00:02.290,0.392977,-0.01805,9.225596,0.004886,-0.144615,-0.011241
2024-01-01 00:00:02.300,-0.422335,-0.193325,10.079421,-0.013189,0.061911,0.004327
2024-01-01 00:00:02.310,0.125167,-0.937139,9.473622,0.16337,0.108668,-0.045747
2024-01-01 00:00:02.320,0.026352,-0.495376,9.639733,0.017227,-0.172105,-0.03047
2024-01-01 00:00:02.330,-0.376788,0.884222,7.508267,-0.033151,-0.014496,-0.060539
2024-01-01 00:00:02.340,1.239736,-0.592339,9.604808,0.29425,-0.031301,0.1285
2024-01-01 00:00:02.350,0.366564,0.087653,10.70686,-0.328117,-0.110348,0.029103
2024-01-01 00:00:02.360,-1.171039,0.466044,9.225826,0.134097,0.460335,0.338513
2024-01-01 00:00:02.370,0.107817,-0.580527,9.858597,-0.417787,-0.152621,0.024106
2024-01-01 00:00:02.380,-0.382678,0.085447,9.110594,-0.20959,0.200986,-0.082629
2024-01-01 00:00:02.390,0.49292,0.43388,10.143481,-0.303164,-0.07856,0.400601
2024-01-01 00:00:02.400,-0.458275,0.005782,9.609673,0.195486,-0.217327,0.062044
2024-01-01 00:00:02.410,-0.066346,1.326923,8.941014,-0.016353,0.020563,0.148519
2024-01-01 00:00:02.420,0.292009,-0.771894,11.042877,-0.003376,0.129819,0.088815
2024-01-01 00:00:02.430,0.500623,0.489768,10.669448,-0.276683,0.184102,0.093452
2024-01-01 00:00:02.440,-0.694071,-0.079938,9.25034,-0.074923,0.312453,0.080348
2024-01-01 00:00:02.450,-0.193425,0.35709,10.270554,-0.190866,0.589049,-0.165313
2024-01-01 00:00:02.460,-0.274637,0.204149,10.307214,0.095864,0.050103,0.055129
2024-01-01 00:00:02.470,-0.377788,-0.339158,10.404257,-0.247773,-0.132618,-0.198729
2024-01-01 00:00:02.480,1.020874,0.105934,8.242474,0.332449,0.090575,-0.026154
2024-01-01 00:00:02.490,0.234181,-0.859465,10.741312,-0.418895,-0.053243,-0.108843
2024-01-01 00:00:02.500,-0.729106,0.279062,9.282915,-0.20163,0.185193,0.053621
2024-01-01 00:00:02.510,0.530754,0.137928,9.478938,0.4193,-0.259433,0.050119
2024-01-01 00:00:02.520,1.227137,0.295444,12.250568,-0.108785,0.473667,0.072172
2024-01-01 00:00:02.530,0.597023,0.489486,10.089293,-0.32872,0.17121,0.043094
2024-01-01 00:00:02.540,-0.878576,0.170061,9.452574,0.054768,-0.336801,-0.091024
2024-01-01 00:00:02.550,-0.280008,0.068506,7.769662,-0.118848,-0.141806,-0.039151
2024-01-01 00:00:02.560,0.732591,-0.407582,11.09581,-0.208968,0.163216,0.138059
2024-01-01 00:00:02.570,-0.40921,-0.329473,8.565412,-0.273968,0.235269,0.160179
2024-01-01 00:00:02.580,0.256639,0.548983,8.881618,0.692093,-0.254448,-0.172017
2024-01-01 00:00:02.590,0.447932,0.664449,9.503433,-0.062888,0.142605,-0.229639
2024-01-01 00:00:02.600,-0.535998,-0.11015,11.120464,-0.481392,-0.389468,-0.109033
2024-01-01 00:00:02.610,-0.034421,0.021281,10.525402,0.373427,-0.017867,0.156781
2024-01-01 00:00:02.620,-1.874263,-0.418475,9.663969,0.152768,0.222409,0.182233
2024-01-01 00:00:02.630,-0.592352,0.542517,10.095232,-0.191617,-0.110303,-0.138707
2024-01-01 00:00:02.640,-0.146048,0.307822,9.254523,-0.23328,-0.301384,0.046096
2024-01-01 00:00:02.650,-0.721531,0.898007,9.939208,0.168368,0.029243,0.275165
2024-01-01 00:00:02.660,0.943942,-0.406312,9.877851,-0.06173,-0.120944,0.062297
2024-01-01 00:00:02.670,-0.826979,-0.174866,10.706306,-0.481494,0.125912,0.213225
2024-01-01 00:00:02.680,-0.254456,0.107067,10.704833,0.44681,-0.177065,0.149809
2024-01-01 00:00:02.690,0.075601,0.299066,10.267028,-0.108498,-0.154527,-0.13653
2024-01-01 00:00:02.700,0.833416,-0.099768,9.474756,0.373893,-0.4042,-0.028497
2024-01-01 00:00:02.710,-0.830287,-0.403832,10.496334,0.319609,0.033989,0.005213
2024-01-01 00:00:02.720,0.672599,0.407739,9.724911,-0.250252,-0.032181,0.01562
2024-01-01 00:00:02.730,0.005917,0.333597,8.809013,0.258297,-0.237677,0.137449
2024-01-01 00:00:02.740,-0.567557,-0.423868,9.436878,-0.162861,0.03876,0.061303
2024-01-01 00:00:02.750,0.267211,0.627028,9.888204,-0.466675,0.205414,-0.44043
2024-01-01 00:00:02.760,0.115106,0.541334,10.652132,-0.10615,-0.043114,-0.196926
2024-01-01 00:00:02.770,-0.347075,0.062126,9.6402,0.099409,0.053633,-0.328107
2024-01-01 00:00:02.780,0.040363,0.036822,8.691249,-0.115684,0.054662,0.026305
2024-01-01 00:00:02.790,-0.222808,0.256307,9.862497,-0.076762,-0.240866,0.036073
2024-01-01 00:00:02.800,0.065641,-0.398624,9.91497,0.285892,0.411317,0.042484
2024-01-01 00:00:02.810,0.382877,0.013893,9.981937,0.026623,-0.09417,-0.143839
2024-01-01 00:00:02.820,0.917114,-0.995693,10.661065,-0.210825,0.131223,0.101122
2024-01-01 00:00:02.830,-0.715767,0.405448,10.752708,0.175508,0.153843,0.107439
2024-01-01 00:00:02.840,1.233427,-0.722347,9.260236,0.049419,-0.027919,-0.188272
2024-01-01 00:00:02.850,-1.128795,0.695482,9.239944,-0.630401,0.121359,-0.219906
2024-01-01 00:00:02.860,-0.08777,-0.152714,8.847608,0.107088,0.049164,-2e-05
2024-01-01 00:00:02.870,0.340194,-0.097917,10.456544,0.097957,-0.283528,0.268767
2024-01-01 00:00:02.880,0.162484,-0.29039,11.150448,0.00503,-0.066455,0.254961
2024-01-01 00:00:02.890,-0.360076,-0.133247,9.518486,0.222925,-0.12251,0.084511
2024-01-01 00:00:02.900,-0.120347,0.656213,9.586628,-0.168098,-0.092349,-0.1095
2024-01-01 00:00:02.910,-0.285078,-1.15086,11.167067,0.084125,-0.260801,0.133026
2024-01-01 00:00:02.920,-0.3408,0.590724,10.277742,-0.39174,0.225287,-0.067864
2024-01-01 00:00:02.930,0.491282,0.15637,10.213605,0.101773,0.320399,-0.115126
2024-01-01 00:00:02.940,0.206444,-0.558368,8.708164,0.488265,0.195601,-0.321595
2024-01-01 00:00:02.950,-0.400675,-0.49744,10.437959,-0.248714,0.254106,0.015357
2024-01-01 00:00:02.960,0.520194,0.775499,8.950363,-0.189951,-0.068927,-0.09448
2024-01-01 00:00:02.970,0.177696,-0.437391,8.760805,-0.177504,-0.127251,0.014465
2024-01-01 00:00:02.980,0.470038,-0.53354,9.489167,0.0325,-0.155717,-0.344904
2024-01-01 00:00:02.990,0.364083,0.526122,9.268025,-0.265759,0.128813,0.025474
2024-01-01 00:00:03.000,-0.479366,0.156615,9.604976,0.105312,0.045413,-0.364668
2024-01-01 00:00:03.010,-0.323925,-0.433884,8.476804,0.21171,-0.015444,0.163191
2024-01-01 00:00:03.020,0.432123,0.100211,10.697097,0.133587,0.25903,0.078284
2024-01-01 00:00:03.030,0.352947,-0.474513,10.853335,-0.442104,0.080988,-0.0418
2024-01-01 00:00:03.040,-0.012086,0.50924,8.008319,0.248792,-0.167732,0.084408
2024-01-01 00:00:03.050,0.067845,0.49099,10.715269,0.234342,-0.136182,-0.146711
2024-01-01 00:00:03.060,0.73881,0.246106,9.060099,0.20754,0.136399,0.010856
2024-01-01 00:00:03.070,-0.342076,0.167304,10.602874,0.093211,0.208347,0.119216
2024-01-01 00:00:03.080,0.316359,0.814726,9.746673,0.055047,0.110336,-0.464143
2024-01-01 00:00:03.090,-0.116918,-0.000145,9.836623,0.258097,0.379378,-0.067084
2024-01-01 00:00:03.100,-0.125874,-0.546735,9.638748,0.480878,0.327001,-0.003397
2024-01-01 00:00:03.110,0.635368,0.207927,10.931462,-0.23826,0.088207,-0.029444
2024-01-01 00:00:03.120,0.477297,0.965005,8.663133,0.269531,-0.167716,0.218565
2024-01-01 00:00:03.130,0.470412,-0.469428,10.372374,-0.021554,-0.261998,-0.168585
2024-01-01 00:00:03.140,0.754893,-0.167213,10.828951,-0.032418,-0.077476,-0.093174
2024-01-01 00:00:03.150,0.012145,0.192648,10.472758,-0.384133,0.150643,-0.28738
2024-01-01 00:00:03.160,0.394339,-0.024936,11.960811,-0.071197,0.365329,0.226543
2024-01-01 00:00:03.170,-0.179412,-0.454414,9.320618,-0.249316,0.083489,-0.036944
2024-01-01 00:00:03.180,0.187449,0.518971,10.695698,-0.115964,0.233745,-0.065761
2024-01-01 00:00:03.190,-0.075255,1.073251,9.711845,-0.274547,-0.049061,-0.007872
2024-01-01 00:00:03.200,0.056088,0.09073,10.951147,-0.112227,0.124554,0.095435
2024-01-01 00:00:03.210,0.34415,-0.418222,9.802886,-0.101528,0.164671,0.052105
2024-01-01 00:00:03.220,-0.473136,-0.716549,9.451137,0.024189,-0.395919,0.397183
2024-01-01 00:00:03.230,1.209923,0.11934,11.018378,-0.403687,-0.082688,0.06809
2024-01-01 00:00:03.240,1.47427,0.510654,15.009207,-0.36138,0.18994,-0.069787
2024-01-01 00:00:03.250,1.353895,0.219813,14.156946,0.090479,0.054894,-0.084204
2024-01-01 00:00:03.260,2.725678,-0.001112,14.985813,-0.19936,-0.239303,-0.058914
2024-01-01 00:00:03.270,2.513779,-0.272597,16.036729,0.268632,-0.486024,-0.225276
2024-01-01 00:00:03.280,2.416897,-0.505235,16.751914,0.056317,-0.073156,0.00598
2024-01-01 00:00:03.290,0.363341,0.386156,9.912817,0.151691,-0.014317,0.11752
2024-01-01 00:00:03.300,-0.007082,0.422711,11.029596,0.352673,-0.176785,-0.092005
2024-01-01 00:00:03.310,-0.518837,-0.715055,8.553417,-0.077428,0.028617,-0.121107
2024-01-01 00:00:03.320,0.043834,0.73546,9.399893,-0.143622,0.101277,0.227392
2024-01-01 00:00:03.330,-0.391569,0.265565,9.54301,0.217926,0.134137,-0.213972
2024-01-01 00:00:03.340,0.563863,0.647452,9.70401,0.127378,-0.471184,-0.310173
2024-01-01 00:00:03.350,-0.085036,-0.620868,9.887804,-0.046833,-0.262857,-0.172935
2024-01-01 00:00:03.360,-0.477344,-0.63183,10.449231,0.347864,-0.060925,-0.231065
2024-01-01 00:00:03.370,-0.185841,-0.068913,9.398465,-0.053061,0.114435,0.057934
2024-01-01 00:00:03.380,0.238778,0.232588,9.938629,0.008193,0.097847,-0.054106
2024-01-01 00:00:03.390,-0.325974,0.830997,9.768252,0.005306,0.094374,-0.032953
2024-01-01 00:00:03.400,-0.475449,0.326632,8.953367,-0.233648,-0.076684,0.17294
2024-01-01 00:00:03.410,0.140912,-0.112264,9.704836,0.019396,-0.065527,-0.1037
2024-01-01 00:00:03.420,0.141652,-0.474798,9.677086,0.34919,-0.145666,0.116263
2024-01-01 00:00:03.430,-0.29314,0.568998,9.657267,0.111242,0.153639,0.226698
2024-01-01 00:00:03.440,-0.272378,-0.446273,9.839384,0.007766,-0.184098,-0.068349
2024-01-01 00:00:03.450,0.134183,0.75333,9.880013,-0.040442,0.170007,0.110553
2024-01-01 00:00:03.460,-0.837355,-0.131556,9.410041,0.082717,0.041571,-0.036273
2024-01-01 00:00:03.470,-0.813866,0.735803,10.987516,0.187442,-0.009009,0.138615
2024-01-01 00:00:03.480,-0.41544,0.314074,8.727997,0.15231,-0.131342,-0.235723
2024-01-01 00:00:03.490,-0.123426,-0.063374,9.142958,-0.082966,-0.271108,-0.246827
2024-01-01 00:00:03.500,0.179782,-0.240273,12.382022,0.081195,-0.129531,-0.05869
2024-01-01 00:00:03.510,0.853125,-0.157704,8.84965,0.119985,-0.066001,-0.133339
2024-01-01 00:00:03.520,0.495942,0.198139,8.557506,-0.251799,-0.473805,-0.077506
2024-01-01 00:00:03.530,-0.092484,0.035693,10.489538,0.042058,-0.039471,-0.032929
2024-01-01 00:00:03.540,-0.010996,-0.274697,7.888249,-0.540326,0.184871,0.108002
2024-01-01 00:00:03.550,-0.579713,-0.076621,9.592325,0.120633,0.113444,-0.061149
2024-01-01 00:00:03.560,-0.010705,0.03635,11.795317,0.165086,-0.099241,-0.123579
2024-01-01 00:00:03.570,-0.166917,-0.984752,8.380625,0.186887,0.009387,-0.052727
2024-01-01 00:00:03.580,0.186612,0.211949,7.976286,-0.098762,-0.111233,-0.115372
2024-01-01 00:00:03.590,-0.478346,-0.453219,8.422958,0.077262,0.029752,-0.140101
2024-01-01 00:00:03.600,0.300312,-0.533532,10.641162,0.355988,0.308022,-0.241953
2024-01-01 00:00:03.610,0.886306,-0.780565,10.850643,0.353442,0.1937,0.010422
2024-01-01 00:00:03.620,-0.062891,-0.829855,9.335753,-0.007293,0.104159,-0.085306
2024-01-01 00:00:03.630,0.23229,-0.62703,10.442108,0.03483,-0.098577,0.144942
2024-01-01 00:00:03.640,0.399076,-0.327993,11.096264,0.277728,0.149988,-0.217109
2024-01-01 00:00:03.650,-0.232006,0.903578,11.463653,-0.375201,-0.337375,-0.081313
2024-01-01 00:00:03.660,0.129581,-0.243272,9.582091,-0.080769,-0.050471,0.271936
2024-01-01 00:00:03.670,0.007282,0.082227,7.680678,0.333893,0.116742,-0.140941
2024-01-01 00:00:03.680,2.112481,0.185263,14.704523,0.2438,0.148084,-0.03548
2024-01-01 00:00:03.690,1.609007,0.060631,15.069121,0.092316,0.133977,-0.182377
2024-01-01 00:00:03.700,2.070173,-0.035825,15.22443,-0.376458,0.058966,-0.202264
2024-01-01 00:00:03.710,2.343968,-0.552943,15.290192,-0.012478,-0.039145,0.232097
2024-01-01 00:00:03.720,2.895124,0.671199,16.499201,-0.147479,0.107595,0.025656
2024-01-01 00:00:03.730,0.554698,0.836009,10.989101,0.08276,-0.190572,0.020052
2024-01-01 00:00:03.740,1.245078,-0.778398,9.651168,-0.202337,-0.168935,-0.254447
2024-01-01 00:00:03.750,-0.443719,-0.473716,10.826318,-0.256431,0.012347,0.053811
2024-01-01 00:00:03.760,0.504419,-0.12944,10.140908,-0.516216,0.03464,0.173613
2024-01-01 00:00:03.770,0.106018,-0.446195,9.869681,0.305451,-0.365123,0.172422
2024-01-01 00:00:03.780,1.266254,0.23406,10.648735,-0.099943,0.091029,0.10025
2024-01-01 00:00:03.790,-0.467398,-0.336899,9.876848,0.039286,0.154546,-0.169423
2024-01-01 00:00:03.800,-0.485569,1.001555,11.713887,-0.00056,-0.015457,0.046969
2024-01-01 00:00:03.810,-0.346599,0.550748,8.479182,-0.266858,0.474893,0.100138
2024-01-01 00:00:03.820,-1.228143,0.098337,9.333364,-0.314766,-0.136587,-0.269167
2024-01-01 00:00:03.830,-0.304018,0.475084,9.692945,-0.251329,-0.072217,-0.168192
2024-01-01 00:00:03.840,-0.438968,0.51159,10.216582,-0.180792,-0.079013,0.133224
2024-01-01 00:00:03.850,0.086965,-0.260882,10.983117,0.091652,-0.015238,0.131407
2024-01-01 00:00:03.860,0.19762,-0.377582,9.787426,-0.198929,-0.065745,-0.232287
2024-01-01 00:00:03.870,1.084896,0.036149,8.494153,0.436623,-0.281362,0.119253
2024-01-01 00:00:03.880,0.549583,0.398593,10.589494,0.256788,-0.10931,0.014296
2024-01-01 00:00:03.890,-0.333595,0.064329,10.508488,0.20209,-0.019524,0.117151
2024-01-01 00:00:03.900,-0.519508,-0.729519,8.013392,-0.029915,0.245714,-0.095178
2024-01-01 00:00:03.910,0.284452,-0.371387,9.80648,0.37857,0.440449,0.096778
2024-01-01 00:00:03.920,-0.763425,-0.03422,8.338801,-0.054501,0.267095,0.126574
2024-01-01 00:00:03.930,1.059041,-0.035003,9.195065,-0.007815,-0.155076,-0.0527
2024-01-01 00:00:03.940,0.682011,0.912498,8.974721,0.042494,-0.139162,0.002663
2024-01-01 00:00:03.950,-0.271301,-0.641158,10.558732,0.175456,-0.031866,-0.097278
2024-01-01 00:00:03.960,-0.99062,0.233886,9.918091,0.159227,0.356912,0.247746
2024-01-01 00:00:03.970,0.782877,0.688864,8.620571,-0.118781,-0.033085,-0.018041
2024-01-01 00:00:03.980,-0.066233,1.050773,10.624237,-0.133248,-0.265501,-0.138304
2024-01-01 00:00:03.990,0.715767,-0.187074,8.483443,0.159976,-0.100235,-0.107374
2024-01-01 00:00:04.000,-0.921978,0.227335,10.115421,0.178809,0.151411,0.019016
2024-01-01 00:00:04.010,-0.346589,0.263571,9.056877,-0.098338,0.137988,0.113
2024-01-01 00:00:04.020,0.003032,0.09043,9.471676,-0.396797,-0.040043,-0.200374
2024-01-01 00:00:04.030,0.027167,-0.045726,10.276551,-0.051829,0.136683,0.277149
2024-01-01 00:00:04.040,-0.26025,0.201682,10.292445,0.155881,-0.454634,0.046301
2024-01-01 00:00:04.050,0.360163,-1.171417,11.046964,0.451354,0.020766,0.069968
2024-01-01 00:00:04.060,-0.617352,0.315525,9.733899,-0.299489,0.172137,-0.014578
2024-01-01 00:00:04.070,-0.082331,0.05837,10.093528,-0.106643,-0.166573,0.002889
2024-01-01 00:00:04.080,0.069561,-0.102917,9.405005,-0.097351,-0.167268,-0.022242
2024-01-01 00:00:04.090,0.297474,0.946878,9.978377,0.338951,-0.37329,0.152669
2024-01-01 00:00:04.100,0.411491,-0.312224,10.216612,-0.008735,0.317979,-0.001189
2024-01-01 00:00:04.110,-0.650324,-0.186463,9.719044,-0.226832,-0.144031,0.115058
2024-01-01 00:00:04.120,-0.887102,0.921293,8.14117,0.139674,0.048209,-0.065077
2024-01-01 00:00:04.130,0.738817,-0.384912,10.116677,-0.10116,0.120783,0.029346
2024-01-01 00:00:04.140,0.192161,-0.254483,10.147292,-0.306097,0.302414,-0.120588
2024-01-01 00:00:04.150,-0.432812,-0.068014,9.180703,-0.223193,-0.03078,0.182479
2024-01-01 00:00:04.160,0.896954,0.388924,8.621685,0.43351,-0.107886,-0.125062
2024-01-01 00:00:04.170,0.066889,0.096129,11.175483,0.096052,0.034614,-0.048747
2024-01-01 00:00:04.180,0.681929,-0.597968,10.264685,0.02694,0.256816,-0.047244
2024-01-01 00:00:04.190,0.039043,-0.246181,9.598054,-0.062473,-0.034035,-0.053093
2024-01-01 00:00:04.200,1.191627,-0.280962,8.758017,0.073037,-0.190974,0.108374
2024-01-01 00:00:04.210,1.015026,-0.035722,9.049657,0.070059,-0.308152,-0.047499
2024-01-01 00:00:04.220,-0.143964,0.196995,11.015157,0.073042,-0.244259,0.209089
2024-01-01 00:00:04.230,0.561811,0.193462,9.937365,0.028711,0.172878,-0.122771
2024-01-01 00:00:04.240,0.373189,-0.821583,9.300597,0.2172,-0.064125,0.025407
2024-01-01 00:00:04.250,0.791411,0.492179,10.281564,0.005776,-0.121504,-0.116368
2024-01-01 00:00:04.260,-0.557967,0.116838,9.056519,-0.244485,-0.143193,0.063146
2024-01-01 00:00:04.270,0.396709,0.640485,11.19858,-0.153106,0.017009,-0.002392
2024-01-01 00:00:04.280,0.612034,0.205486,11.061611,-0.494755,-0.047891,-0.023259
2024-01-01 00:00:04.290,-1.016991,0.509472,9.378326,0.506704,-0.054626,0.178271
2024-01-01 00:00:04.300,-0.684219,0.215824,9.228354,0.215689,0.269865,-0.098151
2024-01-01 00:00:04.310,-1.179186,0.622764,7.387703,-0.207518,0.307603,0.087977
2024-01-01 00:00:04.320,-0.155785,0.241593,8.439241,-0.070461,-0.322004,-0.115344
2024-01-01 00:00:04.330,0.414919,-0.045296,8.570723,-0.159219,0.065519,0.016903
2024-01-01 00:00:04.340,0.868738,1.051228,9.935078,0.385637,-0.155372,-0.179336
2024-01-01 00:00:04.350,0.042845,0.411269,9.508169,-0.354969,-0.04965,-0.099378
2024-01-01 00:00:04.360,0.941747,0.265414,8.565296,0.028619,0.061856,-0.012321
2024-01-01 00:00:04.370,-0.798044,-0.590418,9.549867,-0.027132,-0.042544,0.272197
2024-01-01 00:00:04.380,-0.984981,-0.595971,10.277538,0.20671,0.046092,0.015121
2024-01-01 00:00:04.390,-0.03212,0.13541,10.298357,-0.026002,0.134594,0.2482
2024-01-01 00:00:04.400,0.222086,0.067318,8.052425,-0.439552,0.058915,0.033048
2024-01-01 00:00:04.410,-0.018906,-0.284093,9.691331,-0.062779,-0.129367,-0.058063
2024-01-01 00:00:04.420,-1.195498,0.065219,8.530133,-0.243041,-0.12584,0.230903
2024-01-01 00:00:04.430,-0.051534,0.734899,10.644279,0.019895,-0.287941,0.065553
2024-01-01 00:00:04.440,-0.754309,0.321693,10.535492,0.358544,-0.170784,-0.096408
2024-01-01 00:00:04.450,0.387238,-0.527831,8.979145,-0.434856,0.392414,0.070586
2024-01-01 00:00:04.460,0.211985,-0.051584,9.101255,-0.200056,-0.158401,-0.043889
2024-01-01 00:00:04.470,-0.543485,-0.372377,9.383236,-0.138173,-0.238676,-0.298355
2024-01-01 00:00:04.480,-0.297144,-0.17935,7.725716,-0.095408,0.063986,0.140396
2024-01-01 00:00:04.490,-0.61249,-0.191339,10.120838,0.185031,-0.022073,0.16424
2024-01-01 00:00:04.500,-0.036244,-0.220959,9.557564,-0.043386,-0.039119,0.275691
2024-01-01 00:00:04.510,0.552311,-0.580626,10.707606,0.103951,0.281809,0.063322
2024-01-01 00:00:04.520,-0.569996,-0.059053,8.793752,-0.156443,0.109825,-0.037309
2024-01-01 00:00:04.530,0.291465,-0.259337,9.237187,0.057481,-0.105999,0.125248
2024-01-01 00:00:04.540,-0.306621,-1.355163,8.416163,0.194449,-0.084895,0.127473
2024-01-01 00:00:04.550,-0.458479,0.949705,8.88083,-0.183075,-0.100517,0.245742
2024-01-01 00:00:04.560,-0.06189,0.503665,8.71643,0.19534,0.174948,-0.006694
2024-01-01 00:00:04.570,-0.598629,-0.174077,10.731475,0.013093,-0.06163,-0.024837
2024-01-01 00:00:04.580,-0.320148,0.008706,9.163968,0.261365,-0.358631,-0.107332
2024-01-01 00:00:04.590,-0.692673,-0.542007,9.924887,-0.050355,-0.009664,0.080619
2024-01-01 00:00:04.600,1.136102,0.784441,9.457718,0.095311,-0.307405,-0.232239
2024-01-01 00:00:04.610,0.020391,0.877686,8.635491,-0.010152,0.436846,0.116413
2024-01-01 00:00:04.620,-0.404616,0.072487,9.654288,-0.024053,-0.193134,0.088175
2024-01-01 00:00:04.630,0.123734,0.473485,10.36429,0.064733,-0.032373,0.087761
2024-01-01 00:00:04.640,-0.064954,0.081088,8.692581,0.134202,0.051641,0.020734
2024-01-01 00:00:04.650,-0.127776,-0.618369,10.558591,-0.312391,-0.057732,0.229947
2024-01-01 00:00:04.660,0.355142,-0.190509,9.023838,0.358408,-0.058006,0.130799
2024-01-01 00:00:04.670,0.438029,0.06103,9.363143,-0.464916,0.084365,-0.091062
2024-01-01 00:00:04.680,-0.306762,-0.210274,10.300988,-0.171203,0.305243,-0.088377
2024-01-01 00:00:04.690,-0.332967,-0.101149,9.196189,-0.023567,0.153502,-0.131951
2024-01-01 00:00:04.700,-0.159049,-0.042281,9.844764,0.103089,0.295703,0.082692
2024-01-01 00:00:04.710,-1.331086,-0.037414,9.518848,0.394043,-0.209324,-0.150021
2024-01-01 00:00:04.720,-0.876159,0.024175,9.929691,-0.464573,0.063473,0.162509
2024-01-01 00:00:04.730,0.790395,-0.490636,7.60734,-0.126924,0.031049,0.198446
2024-01-01 00:00:04.740,0.951203,-0.331692,8.117178,-0.531708,0.070218,-0.131852
2024-01-01 00:00:04.750,-0.144005,-0.594249,10.379893,0.007905,0.275246,-0.027832
2024-01-01 00:00:04.760,0.333394,0.452337,10.7696,0.067921,-0.044158,0.002493
2024-01-01 00:00:04.770,0.17998,-0.974072,8.967618,0.397699,-0.081101,0.132597
2024-01-01 00:00:04.780,1.780363,0.533651,9.584225,0.030159,0.106796,0.241402
2024-01-01 00:00:04.790,0.647394,0.641325,10.082674,0.261006,-0.355641,-0.252824
2024-01-01 00:00:04.800,-0.073968,-0.139789,10.451365,0.145959,-0.04737,-0.047727
2024-01-01 00:00:04.810,-0.552541,-1.204211,7.933993,-0.108812,-0.02684,-0.039903
2024-01-01 00:00:04.820,-0.928928,-0.167142,8.990236,-0.35224,-0.184072,-0.2101
2024-01-01 00:00:04.830,0.117653,-0.029692,9.502298,0.068751,0.211412,-0.072767
2024-01-01 00:00:04.840,1.61864,-0.467503,16.114545,-0.373026,-0.212448,0.064165
2024-01-01 00:00:04.850,1.233582,-0.23834,17.775548,0.323802,-0.027175,-0.041802
2024-01-01 00:00:04.860,1.682119,0.707868,15.253049,-0.040516,0.058631,-0.231693
2024-01-01 00:00:04.870,1.430595,0.307595,14.162264,0.298794,0.27069,0.431112
2024-01-01 00:00:04.880,3.03159,-0.427703,15.836178,-0.120054,-0.002111,0.039927
2024-01-01 00:00:04.890,0.509808,-0.739049,11.032185,0.067213,0.187231,0.016754
2024-01-01 00:00:04.900,-0.00461,-0.151278,9.909935,0.052337,0.140119,-0.164689
2024-01-01 00:00:04.910,0.855778,-0.098745,8.971169,-0.011261,0.024692,0.039106
2024-01-01 00:00:04.920,0.044738,0.229542,10.696336,-0.108165,-0.217903,-0.024632
2024-01-01 00:00:04.930,-0.498038,-0.247638,10.423912,0.098114,-0.286916,-0.283279
2024-01-01 00:00:04.940,0.880746,0.23662,8.86067,-0.231541,0.021301,-0.160538
2024-01-01 00:00:04.950,0.311625,0.895202,10.162895,-0.302359,-0.108539,0.119239
2024-01-01 00:00:04.960,-0.599788,0.377251,10.73267,0.310707,0.183852,0.291603
2024-01-01 00:00:04.970,-0.110063,-0.022246,10.903485,0.181792,0.149171,0.055075
2024-01-01 00:00:04.980,-0.506326,-0.084725,9.748521,0.016473,-0.036922,0.165462
2024-01-01 00:00:04.990,-0.799604,-0.164997,9.478705,0.416286,-0.231543,-0.023363
2024-01-01 00:00:05.000,0.535562,0.546164,10.945474,-0.066941,0.102147,-0.012982
2024-01-01 00:00:05.010,1.10412,-0.290195,8.69036,0.330676,-0.20359,0.163647
2024-01-01 00:00:05.020,-0.808722,0.02092,10.215774,0.043894,-0.151693,0.249417
2024-01-01 00:00:05.030,0.325537,0.023684,8.542451,-0.256188,-0.195883,0.195165
2024-01-01 00:00:05.040,-0.376234,-0.232125,10.795686,0.46201,-0.0277,-0.159954
2024-01-01 00:00:05.050,-0.28168,-0.634903,9.571256,0.247678,0.234038,-0.010044
2024-01-01 00:00:05.060,-0.342552,0.149408,10.983693,-0.030255,-0.001008,0.041629
2024-01-01 00:00:05.070,-0.499603,-0.02822,10.264655,0.181793,-0.088644,-0.038952
2024-01-01 00:00:05.080,0.028058,0.231411,8.678277,-0.100926,-0.305123,0.058179
2024-01-01 00:00:05.090,-0.480497,-0.246844,11.128066,0.207287,0.110425,0.123087
2024-01-01 00:00:05.100,0.156392,0.564752,11.245212,-0.59777,-0.156081,0.150421
2024-01-01 00:00:05.110,-0.02905,-0.405596,10.626291,-0.25495,0.023504,0.252881
2024-01-01 00:00:05.120,-0.138172,0.79199,9.105379,0.244815,-0.070844,-0.049416
2024-01-01 00:00:05.130,-0.524799,-0.808457,9.526876,-0.062414,0.167635,-0.204605
2024-01-01 00:00:05.140,-0.333518,0.201125,9.944549,0.051886,-0.031447,0.053735
2024-01-01 00:00:05.150,0.436805,0.219934,9.158927,-0.336696,-0.011785,0.282572
2024-01-01 00:00:05.160,0.289655,-0.368025,11.375759,0.461967,0.097149,-0.071546
2024-01-01 00:00:05.170,-0.565271,0.196325,9.943531,0.297632,0.421388,0.103027
2024-01-01 00:00:05.180,0.057439,0.591905,7.308862,-0.050171,0.177689,0.104362
2024-01-01 00:00:05.190,0.43449,-1.0255,10.123972,-0.101174,-0.017721,0.028716
2024-01-01 00:00:05.200,-0.965334,0.23257,9.487885,0.257401,0.00064,0.001039
2024-01-01 00:00:05.210,0.314198,-1.153387,9.740678,0.495618,-0.104972,-0.138514
2024-01-01 00:00:05.220,-0.383162,-0.446717,9.468953,0.23844,-0.189999,-0.342249
2024-01-01 00:00:05.230,0.329949,0.753652,10.556679,0.542951,-0.11055,-0.166778
2024-01-01 00:00:05.240,-0.441355,-0.269132,10.845935,-0.230588,-0.15443,-0.058546
2024-01-01 00:00:05.250,-1.043673,-0.543037,10.071881,-0.204847,0.130674,0.164613
2024-01-01 00:00:05.260,-0.941126,-0.091566,9.496069,-0.297235,-0.214239,-0.015469
2024-01-01 00:00:05.270,0.027805,0.956613,9.771755,0.11044,0.266642,-0.077854
2024-01-01 00:00:05.280,2.206185,-0.847336,15.482134,0.043901,0.150409,-0.133648
2024-01-01 00:00:05.290,1.533079,-0.486336,14.721592,-0.037988,0.0041,0.098521
2024-01-01 00:00:05.300,2.425266,0.692712,15.999625,0.202315,6.4e-05,0.203754
2024-01-01 00:00:05.310,1.095226,0.859373,15.889631,0.308082,-0.111456,0.159515
2024-01-01 00:00:05.320,2.017789,-0.047847,16.889216,-0.381416,0.054017,0.090922
2024-01-01 00:00:05.330,-0.70027,-0.573186,10.97145,-0.149243,0.217618,-0.221342
2024-01-01 00:00:05.340,-0.376924,0.969537,9.175614,0.205036,-0.140631,-0.052751
2024-01-01 00:00:05.350,0.027408,0.737589,10.56894,-0.116935,-0.306678,0.292096
2024-01-01 00:00:05.360,-0.497534,0.314081,8.930178,-0.199552,0.140644,0.168293
2024-01-01 00:00:05.370,-0.222369,-0.375817,10.453876,0.254634,0.064873,-0.230625
2024-01-01 00:00:05.380,0.581889,-0.022681,9.332029,-0.322375,-0.22404,-0.008339
2024-01-01 00:00:05.390,-0.333588,-0.074183,8.863286,-0.075395,-0.146678,0.054465
2024-01-01 00:00:05.400,0.483239,0.153052,10.069098,0.082161,-0.171821,-0.114324
2024-01-01 00:00:05.410,-0.653253,0.671233,7.33549,-0.143455,-0.144906,-0.346381
2024-01-01 00:00:05.420,0.306359,0.406818,8.189997,0.195789,-0.064737,0.014824
2024-01-01 00:00:05.430,0.833587,-0.498394,9.645785,-0.142219,-0.053309,-0.118164
2024-01-01 00:00:05.440,-1.429228,0.636767,9.886275,0.352155,-0.130159,-0.117576
2024-01-01 00:00:05.450,-0.460805,0.144855,9.468306,-0.031437,-0.151633,-0.053202
2024-01-01 00:00:05.460,0.333692,0.317837,8.348706,0.167818,-0.045757,-0.020051
2024-01-01 00:00:05.470,-0.117411,0.678422,9.053286,0.186506,0.033538,-0.001362
2024-01-01 00:00:05.480,0.214615,-0.514217,10.171947,-0.156885,-0.063259,-0.132598
2024-01-01 00:00:05.490,-0.349254,-0.016573,10.348264,-0.513372,0.231733,-0.033031
2024-01-01 00:00:05.500,0.050071,-0.245851,9.79499,0.090189,0.101618,-0.263614
2024-01-01 00:00:05.510,-0.09002,-0.725292,10.880303,0.018072,-0.318169,0.046656
2024-01-01 00:00:05.520,0.67527,0.160388,10.177672,0.138957,0.104746,-0.428441
2024-01-01 00:00:05.530,0.147119,1.161846,9.118454,-0.056632,0.121109,-0.043424
2024-01-01 00:00:05.540,0.195219,-0.85122,9.55048,-0.107607,-0.086947,0.137878
2024-01-01 00:00:05.550,-0.238168,-0.014933,8.512068,0.502118,-0.29904,-0.158901
2024-01-01 00:00:05.560,-0.281958,0.296315,9.70995,-0.368089,0.001613,0.107465
2024-01-01 00:00:05.570,-0.250127,0.056936,10.838915,0.183488,-0.001542,0.17336
2024-01-01 00:00:05.580,0.228092,-0.052333,10.44403,-0.14365,-0.224329,-0.496185
2024-01-01 00:00:05.590,-0.243434,-0.601017,11.107139,-0.083945,-0.290244,-0.022704
2024-01-01 00:00:05.600,0.167562,0.107687,9.529771,-0.079276,-0.017511,-0.431366
2024-01-01 00:00:05.610,1.200101,-0.350079,11.055412,-0.200859,-0.046615,-0.017731
2024-01-01 00:00:05.620,0.503728,-1.013058,9.631155,0.142806,-0.083453,-0.001076
2024-01-01 00:00:05.630,-0.188523,0.552618,11.171511,0.347661,-0.016682,-0.372382
2024-01-01 00:00:05.640,0.694602,0.443349,9.789778,0.117503,-0.220555,0.288726
2024-01-01 00:00:05.650,-0.23597,0.023898,10.46433,0.025845,-0.086964,0.042902
2024-01-01 00:00:05.660,-1.178546,0.10597,11.174774,-0.24661,0.106665,-0.127354
2024-01-01 00:00:05.670,-0.582926,0.49698,9.631041,0.129206,-0.069994,0.219807
2024-01-01 00:00:05.680,-1.081785,0.10378,10.012053,0.539087,-0.334394,-0.269342
2024-01-01 00:00:05.690,-0.203263,0.418199,11.002456,-0.095174,-0.094538,-0.184376
2024-01-01 00:00:05.700,0.01065,-0.137615,9.686945,-0.093996,-0.214032,-0.344918
2024-01-01 00:00:05.710,0.9694,0.606924,8.58791,-0.140272,0.053427,0.270157
2024-01-01 00:00:05.720,0.189046,0.148395,11.79271,-0.122354,0.063767,0.049852
2024-01-01 00:00:05.730,-0.126695,0.089768,9.375374,-0.686325,-0.331755,0.09891
2024-01-01 00:00:05.740,0.479604,-0.58753,9.956881,0.101259,0.151803,0.04515
2024-01-01 00:00:05.750,-1.278589,0.132746,10.879537,-0.211388,-0.222437,0.086065
2024-01-01 00:00:05.760,0.136244,-0.384862,9.247021,-0.402566,0.311836,0.011712
2024-01-01 00:00:05.770,0.445753,-0.29527,8.877521,0.188297,-0.009755,0.040638
2024-01-01 00:00:05.780,-0.854992,-0.377193,10.044758,-0.270504,-0.249279,0.016141
2024-01-01 00:00:05.790,0.661376,-0.49324,8.151046,-0.084667,-0.228397,-0.091289
2024-01-01 00:00:05.800,0.195736,0.982919,9.543629,0.366611,0.069619,-0.006994
2024-01-01 00:00:05.810,-0.24014,0.615877,10.03671,-0.352304,-0.07826,0.041039
2024-01-01 00:00:05.820,0.365906,0.888362,9.560241,-0.38315,-0.019331,0.016582
2024-01-01 00:00:05.830,1.313028,-0.565711,8.381999,0.067327,0.322556,-0.221666
2024-01-01 00:00:05.840,0.105164,0.032962,11.284933,0.287372,-0.139849,-0.201748
2024-01-01 00:00:05.850,0.143534,-0.598377,9.905794,-0.393585,0.011993,0.162426
2024-01-01 00:00:05.860,-0.265625,-0.321828,11.134102,0.101922,0.283969,-0.046049
2024-01-01 00:00:05.870,-0.491423,-0.424726,9.569414,0.14525,0.054103,0.087709
2024-01-01 00:00:05.880,0.480142,0.573432,8.995813,-0.51479,-0.321321,-0.163818
2024-01-01 00:00:05.890,-0.49503,-0.183296,10.059046,0.199625,0.101078,-0.220972
2024-01-01 00:00:05.900,0.041383,0.494232,9.610354,0.219151,-0.232601,-0.126539
2024-01-01 00:00:05.910,-0.276205,0.279466,8.720335,-0.077946,0.281362,-0.033385
2024-01-01 00:00:05.920,0.27697,1.065663,11.169844,0.313087,-0.164574,-0.099771
2024-01-01 00:00:05.930,0.19294,-0.684391,9.234276,0.284114,0.593902,0.19409
2024-01-01 00:00:05.940,0.599957,0.582521,8.107386,0.025779,0.293475,0.026928
2024-01-01 00:00:05.950,-0.294917,0.530344,11.038819,-0.112861,-0.159323,0.277341
2024-01-01 00:00:05.960,-0.156055,-0.450285,9.343423,-0.243207,0.004003,0.060661
2024-01-01 00:00:05.970,-0.56597,0.4659,9.247641,-0.009391,0.150729,-0.361883
2024-01-01 00:00:05.980,-0.256913,0.155501,8.176663,0.14244,0.156732,0.158406
2024-01-01 00:00:05.990,0.218174,-0.105231,11.420719,-0.081044,0.088467,-0.226433
2024-01-01 00:00:06.000,0.437729,-0.381153,8.616973,-0.549375,0.250432,0.03458
2024-01-01 00:00:06.010,-0.533242,-0.33266,9.864077,0.317178,-0.024594,-0.116203
2024-01-01 00:00:06.020,0.50285,0.948243,10.654356,0.047556,-0.073344,0.321407
2024-01-01 00:00:06.030,0.783898,0.000316,10.200173,-0.094906,-0.069373,0.21594
2024-01-01 00:00:06.040,0.239069,0.361813,9.754808,0.21429,0.171675,-0.111273
2024-01-01 00:00:06.050,1.085257,-0.36587,8.235619,0.38116,0.073036,-0.019104
2024-01-01 00:00:06.060,-0.447444,-0.36076,9.060843,-0.700478,0.058257,0.03669
2024-01-01 00:00:06.070,-0.719722,0.500526,9.983753,0.108566,0.159047,0.129512
2024-01-01 00:00:06.080,-1.028545,-0.624314,9.081707,-0.356662,-0.41021,0.004373
2024-01-01 00:00:06.090,0.865088,-0.192078,9.998148,0.124778,0.062014,-0.153734
2024-01-01 00:00:06.100,0.378387,0.015741,10.440749,0.031982,0.043714,-0.107634
2024-01-01 00:00:06.110,-0.032142,0.051521,10.700508,0.158932,0.333762,-0.000672
2024-01-01 00:00:06.120,0.161892,-0.082849,8.675539,-0.124812,-0.305718,0.185169
2024-01-01 00:00:06.130,-0.650814,0.183106,11.842337,-0.46831,0.311437,0.064176
2024-01-01 00:00:06.140,1.414256,0.320515,10.520072,-0.112592,0.015082,-0.116012
2024-01-01 00:00:06.150,0.074722,0.339843,9.808414,0.101712,0.097798,0.097256
2024-01-01 00:00:06.160,0.063258,-0.456033,10.818039,0.253848,0.335184,-0.058048
2024-01-01 00:00:06.170,0.419675,-0.13145,11.998475,-0.292958,0.112152,0.133561
2024-01-01 00:00:06.180,0.278144,0.552697,8.478896,0.256765,0.080074,0.379052
2024-01-01 00:00:06.190,0.129461,0.413864,9.601587,-0.161968,0.048458,-0.053824
2024-01-01 00:00:06.200,-0.457092,-0.635085,7.609475,0.090612,-0.096696,0.120241
2024-01-01 00:00:06.210,0.272627,0.162595,9.988241,-0.127473,-0.005698,-0.111809
2024-01-01 00:00:06.220,1.088281,-0.915127,10.148063,0.045543,-0.143103,-0.01684
2024-01-01 00:00:06.230,0.777989,0.021712,9.773767,0.222969,-0.008913,0.004434
2024-01-01 00:00:06.240,0.92126,0.877907,9.204426,-0.306754,-0.467186,-0.029053
2024-01-01 00:00:06.250,-0.29561,-0.438495,7.913789,-0.169976,0.085808,0.369452
2024-01-01 00:00:06.260,-0.572239,-0.385958,10.155593,0.046241,-0.024347,-0.045989
2024-01-01 00:00:06.270,-0.072736,0.35344,11.156568,0.600396,-0.067241,0.088028
2024-01-01 00:00:06.280,0.032223,-0.7137,9.26319,-0.215797,0.043952,-0.289513
2024-01-01 00:00:06.290,0.632716,-0.292712,10.217143,0.510033,-0.286713,0.064799
2024-01-01 00:00:06.300,-0.978668,0.275914,8.359153,0.501106,0.385854,0.171308
2024-01-01 00:00:06.310,0.884462,-0.293421,10.233014,-0.024328,-0.020553,-0.07914
2024-01-01 00:00:06.320,-0.091368,-0.10916,9.446043,-0.074538,-0.029169,-0.376533
2024-01-01 00:00:06.330,-0.246844,0.34426,9.104611,-0.173016,-0.193079,-0.005798
2024-01-01 00:00:06.340,-0.585249,0.195007,9.106512,-0.017051,0.004789,0.002578
2024-01-01 00:00:06.350,-0.956921,0.12343,9.445831,-0.35168,0.277392,0.108611
2024-01-01 00:00:06.360,0.475998,-0.156878,10.163827,-0.01906,0.207183,0.301635
2024-01-01 00:00:06.370,0.042396,0.17119,8.595987,0.37422,0.170888,-0.057008
2024-01-01 00:00:06.380,-0.74592,-0.057239,9.442589,-0.152771,0.10928,-0.128443
2024-01-01 00:00:06.390,-0.748879,0.211781,9.77163,-0.060181,-0.071709,-0.175038
2024-01-01 00:00:06.400,-0.194168,-0.229881,8.793169,-0.425285,-0.290033,0.029712
2024-01-01 00:00:06.410,0.965112,-0.084456,11.472275,0.093516,-0.040208,0.071903
2024-01-01 00:00:06.420,-0.150109,-0.457954,9.020346,0.06612,-0.047174,-0.081848
2024-01-01 00:00:06.430,-0.869192,-0.016195,9.190637,0.015926,0.209759,0.116802
2024-01-01 00:00:06.440,1.913899,-0.375169,14.558869,-0.054207,0.061878,0.069808
2024-01-01 00:00:06.450,1.898298,-0.515358,17.127954,-0.073189,0.322462,0.006485
2024-01-01 00:00:06.460,0.496525,0.119657,15.975548,0.125475,0.239498,-0.135362
2024-01-01 00:00:06.470,2.024604,0.098413,14.597465,-0.007204,-0.091299,-0.07228
2024-01-01 00:00:06.480,1.922462,0.362157,16.487485,0.078743,-0.359026,-0.364463
2024-01-01 00:00:06.490,0.402581,-0.199439,9.995686,0.053746,0.277115,0.035368
2024-01-01 00:00:06.500,1.069159,0.188765,10.048011,0.280857,0.271877,0.003951
2024-01-01 00:00:06.510,0.651436,0.254799,9.49129,0.169249,-0.273242,0.028272
2024-01-01 00:00:06.520,-0.155485,0.205752,9.11664,0.048215,0.301848,0.075648
2024-01-01 00:00:06.530,-0.639849,-0.381947,10.122501,0.379606,0.076423,0.057873
2024-01-01 00:00:06.540,1.488045,0.069096,9.305685,0.105067,0.032137,-0.016557
2024-01-01 00:00:06.550,0.034243,0.168451,11.490862,0.326241,0.322957,0.0073
2024-01-01 00:00:06.560,0.008055,0.003321,8.635652,0.151736,0.268937,-0.210647
2024-01-01 00:00:06.570,-0.01395,-0.965205,11.231252,-0.46048,0.130266,-0.087558
2024-01-01 00:00:06.580,0.114543,0.074243,9.707008,0.326209,0.094643,0.007571
2024-01-01 00:00:06.590,-0.083476,1.023517,10.086714,0.033794,0.123279,-0.110378
2024-01-01 00:00:06.600,-0.33172,-0.166554,10.580838,-0.012989,-0.080011,0.129023
2024-01-01 00:00:06.610,-0.316221,-0.336808,9.226893,0.070337,-0.01102,-0.098795
2024-01-01 00:00:06.620,-0.01894,0.172711,10.609603,-0.086246,-0.180463,0.032446
2024-01-01 00:00:06.630,-0.314235,0.144506,7.30498,0.056757,-0.066608,0.017485
2024-01-01 00:00:06.640,-0.412203,0.551759,9.143866,-0.147969,-0.073327,0.111942
2024-01-01 00:00:06.650,0.061543,-0.58189,8.955057,0.318568,-0.127061,0.135119
2024-01-01 00:00:06.660,-0.147441,0.338337,8.650256,-0.028397,0.027349,0.104105
2024-01-01 00:00:06.670,0.869684,0.273129,9.611124,-0.095646,-0.064796,-0.315901
2024-01-01 00:00:06.680,-1.532923,-0.065757,10.166896,-0.231231,0.100447,0.179122
2024-01-01 00:00:06.690,0.631164,0.156677,10.460101,0.067194,-0.324464,0.229096
2024-01-01 00:00:06.700,0.720549,0.476227,10.032859,0.046777,-0.022671,-0.072319
2024-01-01 00:00:06.710,-1.198938,0.403533,9.1941,0.097106,0.02631,0.035497
2024-01-01 00:00:06.720,-0.198159,-0.528761,10.151414,-0.256813,-0.062126,-0.133625
2024-01-01 00:00:06.730,-0.214786,0.379405,9.924989,-0.400295,-0.034479,-0.292257
2024-01-01 00:00:06.740,-0.813894,-0.029925,10.676039,0.156398,-0.317049,-0.110807
2024-01-01 00:00:06.750,-0.449772,0.033712,10.528822,0.37116,0.071295,-0.081021
2024-01-01 00:00:06.760,-0.64219,0.033861,9.838197,-0.256588,0.129521,-0.053228
2024-01-01 00:00:06.770,1.01325,-0.069502,8.979862,0.39736,0.098707,-0.143837
2024-01-01 00:00:06.780,0.541056,0.551284,9.205891,0.070978,0.207745,-0.110014
2024-01-01 00:00:06.790,0.735277,-0.038728,9.301335,-0.001766,0.040306,-0.001651
2024-01-01 00:00:06.800,0.417307,-0.517902,9.518316,-0.099387,0.095736,-0.115534
2024-01-01 00:00:06.810,-0.652874,-0.182047,10.058,-0.34613,0.031218,0.081529
2024-01-01 00:00:06.820,-0.303304,0.082664,10.471679,0.246932,0.13751,0.102249
2024-01-01 00:00:06.830,0.282981,0.568635,9.762705,-0.193902,-0.315446,0.357058
2024-01-01 00:00:06.840,-0.706695,0.278992,9.824919,-0.194952,-0.178716,0.168852
2024-01-01 00:00:06.850,0.412291,-0.393458,9.942587,0.247982,0.31738,0.036465
2024-01-01 00:00:06.860,-0.138968,1.149649,9.332684,-0.470746,-0.492087,-0.09304
2024-01-01 00:00:06.870,-0.21674,0.122485,8.953827,-0.380899,-0.028036,0.044062
2024-01-01 00:00:06.880,2.467113,0.589996,13.839869,-0.004534,0.234455,0.048989
2024-01-01 00:00:06.890,2.312895,-0.070183,14.820848,0.073321,-0.018652,-0.076997
2024-01-01 00:00:06.900,1.847271,0.246732,15.901754,0.121184,-0.081002,0.11756
2024-01-01 00:00:06.910,2.726382,0.388338,14.813666,-0.07545,0.025884,-0.209715
2024-01-01 00:00:06.920,1.430875,0.563537,15.243981,0.632592,-0.070624,-0.03666
2024-01-01 00:00:06.930,0.356165,0.489139,10.241542,-0.056973,0.00617,0.083379
2024-01-01 00:00:06.940,0.342961,0.403478,10.291742,-0.057697,-0.136676,-0.043138
2024-01-01 00:00:06.950,-0.178995,-0.145759,8.811216,-0.199247,0.221735,-0.031013
2024-01-01 00:00:06.960,0.188586,-0.26449,10.732479,0.030977,0.284653,-0.020668
2024-01-01 00:00:06.970,-0.723456,0.153864,10.853024,0.15374,-0.026678,-0.12534
2024-01-01 00:00:06.980,0.534319,0.431665,8.764663,0.300895,-0.277298,0.176085
2024-01-01 00:00:06.990,-0.10692,-0.103031,9.047786,-0.372321,-0.104769,-0.152706
2024-01-01 00:00:07.000,-0.302265,0.492749,10.911997,-0.061499,-0.036798,0.047724
2024-01-01 00:00:07.010,0.60659,0.671981,9.674131,0.111676,0.101108,0.062047
2024-01-01 00:00:07.020,-0.407287,-0.42389,7.756261,0.146764,-0.201603,-0.142293
2024-01-01 00:00:07.030,-0.814443,-0.38716,8.515015,0.001637,-0.153832,0.010966
2024-01-01 00:00:07.040,-0.900121,-0.064938,9.579283,0.135606,0.102135,-0.136445
2024-01-01 00:00:07.050,0.350425,0.142302,8.733953,-0.202241,0.187782,0.208656
2024-01-01 00:00:07.060,-0.740408,-0.242665,9.4275,0.389476,-0.124319,-0.170817
2024-01-01 00:00:07.070,1.01471,0.625529,9.839973,0.248157,-0.266643,-0.098085
2024-01-01 00:00:07.080,-1.203876,0.196173,11.162878,-0.336232,0.656824,-0.183634
2024-01-01 00:00:07.090,0.980976,0.018248,9.541272,-0.268776,0.156661,-0.203655
2024-01-01 00:00:07.100,0.122021,-0.664252,10.802316,-0.26173,-0.053401,0.238682
2024-01-01 00:00:07.110,-0.055924,-0.608696,11.131889,0.169492,0.173806,0.081416
2024-01-01 00:00:07.120,-0.315099,0.129995,11.137023,-0.321182,-0.024891,0.021044
2024-01-01 00:00:07.130,0.2308,-0.986539,10.073455,-0.082756,0.173431,-0.098487
2024-01-01 00:00:07.140,-0.021762,0.468446,7.993565,0.113676,0.031879,0.136142
2024-01-01 00:00:07.150,0.637984,-0.073162,10.236355,-0.016541,0.018254,-0.123633
2024-01-01 00:00:07.160,0.066052,1.500255,10.77998,0.064722,-0.022716,0.119046
2024-01-01 00:00:07.170,0.086912,1.067642,9.734997,-0.266451,-0.289476,-0.130877
2024-01-01 00:00:07.180,-0.210259,-0.083938,11.424089,0.148714,0.387619,-0.096676
2024-01-01 00:00:07.190,-0.032929,-0.049191,10.605518,-0.153303,-0.188307,0.113742
2024-01-01 00:00:07.200,0.177986,0.460556,10.335767,-0.081155,-0.272005,0.129574
2024-01-01 00:00:07.210,-0.988905,0.787888,10.815119,0.059433,-0.042572,0.089621
2024-01-01 00:00:07.220,-0.779588,-0.757752,10.118434,0.02577,-0.192294,-0.157451
2024-01-01 00:00:07.230,0.429792,-0.826377,7.503652,0.005995,-0.010343,-0.067009
2024-01-01 00:00:07.240,0.098803,-0.287753,9.348197,-0.187657,0.137553,0.023535
2024-01-01 00:00:07.250,-0.106388,0.269574,10.91762,-0.074887,0.199061,-0.127392
2024-01-01 00:00:07.260,0.010659,0.229854,9.062816,0.000546,0.162946,0.205644
2024-01-01 00:00:07.270,0.200989,0.494876,9.603243,-0.343771,-0.061126,-0.360292
2024-01-01 00:00:07.280,-0.312116,-0.55498,8.843317,-0.115633,0.009918,-0.116811
2024-01-01 00:00:07.290,-0.450055,-1.071448,11.460485,0.09692,0.081576,-0.076435
2024-01-01 00:00:07.300,0.113248,0.396917,11.365717,-0.319359,-0.351557,-0.426592
2024-01-01 00:00:07.310,-0.565744,-0.383124,8.992244,0.289145,0.114117,-0.209434
2024-01-01 00:00:07.320,0.236072,-0.933752,9.94628,0.317403,-0.29146,0.093793
2024-01-01 00:00:07.330,-0.984519,0.067106,9.180407,-0.311288,0.408069,0.004543
2024-01-01 00:00:07.340,0.595109,0.366923,10.378947,0.339405,-0.080903,0.23597
2024-01-01 00:00:07.350,0.273279,-0.056464,10.281559,-0.035895,-0.036975,0.231784
2024-01-01 00:00:07.360,0.148049,-0.211801,10.56099,0.104629,-0.153941,0.064957
2024-01-01 00:00:07.370,0.568241,-0.073721,10.117091,-0.124163,-0.125994,0.046986
2024-01-01 00:00:07.380,0.963061,-0.171432,12.525838,0.230761,0.454819,0.00989
2024-01-01 00:00:07.390,0.586559,-0.623607,8.858965,0.101524,0.188074,-0.398262
2024-01-01 00:00:07.400,-1.064486,-0.330611,8.22735,-0.203538,-0.30984,-0.209184
2024-01-01 00:00:07.410,-0.739915,0.241144,9.446313,-0.2913,0.300843,0.015101
2024-01-01 00:00:07.420,-0.361301,0.148808,8.359297,-0.365076,0.238648,0.092404
2024-01-01 00:00:07.430,0.015087,0.077744,8.429174,0.046985,-0.056242,0.04345
2024-01-01 00:00:07.440,0.299336,-0.460356,8.883584,0.143118,0.061339,-0.13387
2024-01-01 00:00:07.450,-0.419661,-0.083963,8.956791,0.162741,-0.002989,0.140611
2024-01-01 00:00:07.460,0.107998,-1.00711,8.926787,-0.029495,0.394516,0.222367
2024-01-01 00:00:07.470,-0.4368,0.082563,10.289456,-0.289249,-0.159258,0.140698
2024-01-01 00:00:07.480,-0.35361,0.66099,9.341674,-0.170519,0.029202,0.14844
2024-01-01 00:00:07.490,-0.813402,-0.681934,9.643913,0.288087,-0.085629,-0.083884
2024-01-01 00:00:07.500,-0.53386,-0.27105,10.637344,-0.121157,-0.286608,0.16139
2024-01-01 00:00:07.510,-0.781612,0.152245,9.100998,0.035854,0.438328,0.021864
2024-01-01 00:00:07.520,-0.564299,0.579565,9.565242,-0.268913,-0.236313,0.076733
2024-01-01 00:00:07.530,0.609268,-0.207349,10.148401,0.084146,0.044026,0.054815
2024-01-01 00:00:07.540,-0.54899,-0.320235,8.013661,-0.114421,-0.34814,-0.018223
2024-01-01 00:00:07.550,1.522175,-0.910824,7.603485,0.261678,-0.079814,-0.129
2024-01-01 00:00:07.560,0.285261,0.04785,10.130228,0.193389,0.084394,-0.01232
2024-01-01 00:00:07.570,0.106881,0.944664,10.265212,-0.123926,-0.164947,0.148014
2024-01-01 00:00:07.580,-0.496345,0.128306,11.719816,-0.031666,0.11736,-0.066221
2024-01-01 00:00:07.590,0.404954,-0.010306,9.956269,-0.137779,-0.053808,0.134002
2024-01-01 00:00:07.600,-0.332863,0.148995,10.568423,-0.354858,0.232017,0.110561
2024-01-01 00:00:07.610,0.070552,-0.005131,9.629149,-0.214361,0.272352,-0.044841
2024-01-01 00:00:07.620,1.480369,-0.3761,10.084995,0.049554,-0.117349,0.20832
2024-01-01 00:00:07.630,-0.055547,0.380849,11.352546,0.081315,0.015347,-0.053332
2024-01-01 00:00:07.640,0.664567,0.104437,7.844882,0.037137,0.036691,0.226432
2024-01-01 00:00:07.650,-0.406612,0.008148,10.192678,-0.075433,0.12387,0.065119
2024-01-01 00:00:07.660,-0.020232,-0.451204,11.785845,0.233267,0.002876,-0.00238
2024-01-01 00:00:07.670,1.023965,0.603003,10.070938,0.015885,0.038042,-0.13317
2024-01-01 00:00:07.680,-0.362544,0.307491,11.33711,0.175813,-0.048681,-0.013239
2024-01-01 00:00:07.690,1.048048,-0.255781,9.227853,-0.443444,0.023048,-0.030564
2024-01-01 00:00:07.700,0.409258,0.463444,9.78035,-0.9806,0.259588,-0.188744
2024-01-01 00:00:07.710,-0.325246,-0.230176,9.841017,0.070947,0.129217,-0.032642
2024-01-01 00:00:07.720,0.36569,-0.361755,7.758285,-0.356191,0.140251,-0.12057
2024-01-01 00:00:07.730,0.56238,-0.351439,8.729202,-0.053113,0.144614,0.087899
2024-01-01 00:00:07.740,0.359562,-0.819296,8.795171,-0.075524,-0.030762,0.195942
2024-01-01 00:00:07.750,-0.907982,0.218136,10.570576,0.39685,0.063765,-0.184037
2024-01-01 00:00:07.760,-0.420467,-0.847088,10.616916,0.099999,-0.217035,0.256846
2024-01-01 00:00:07.770,-0.143128,-0.568278,10.109799,0.041465,0.253762,-0.019283
2024-01-01 00:00:07.780,-0.043041,-0.960167,10.57246,0.209248,-0.556592,-0.146253
2024-01-01 00:00:07.790,0.358904,-0.039816,9.658129,0.092124,-0.01743,0.113663
2024-01-01 00:00:07.800,0.102756,-0.069538,10.922027,-0.114419,0.228179,-0.066968
2024-01-01 00:00:07.810,-0.772163,-0.15113,9.818131,0.267869,-0.272774,-0.012261
2024-01-01 00:00:07.820,0.219849,-0.482296,9.863536,-0.277438,0.079956,-0.060642
2024-01-01 00:00:07.830,0.353071,-0.542275,9.564274,0.080812,-0.136153,-0.122511
2024-01-01 00:00:07.840,0.323699,0.214817,10.443254,-0.386892,-0.073761,0.1086
2024-01-01 00:00:07.850,0.624961,-0.254685,9.420307,0.050986,0.189188,-0.042945
2024-01-01 00:00:07.860,0.482215,0.146347,10.713394,0.048247,0.039611,-0.215498
2024-01-01 00:00:07.870,0.265521,-0.409516,8.762536,0.419114,-0.406871,0.082659
2024-01-01 00:00:07.880,-0.040573,0.08376,8.793283,-0.391243,-0.195285,-0.180837
2024-01-01 00:00:07.890,-0.960451,0.602896,10.446007,-0.150222,0.195067,-0.172989
2024-01-01 00:00:07.900,0.248427,0.27116,9.728079,0.205671,0.089789,0.178891
2024-01-01 00:00:07.910,0.120095,-0.190783,9.39006,0.083829,0.349627,-0.179451
2024-01-01 00:00:07.920,0.15704,0.11898,10.633481,0.045076,0.33653,-0.347467
2024-01-01 00:00:07.930,-0.73828,-0.111332,9.248162,-0.239034,-0.068449,0.093429
2024-01-01 00:00:07.940,-0.625121,0.003645,9.624774,-0.147705,0.500648,-0.04558
2024-01-01 00:00:07.950,0.608986,-0.150628,11.104566,0.31126,0.004896,-0.032648
2024-01-01 00:00:07.960,-0.022873,-0.076021,11.234014,-0.012877,-0.192534,-0.047175
2024-01-01 00:00:07.970,0.394078,0.098114,11.264783,0.09384,-0.126728,0.03475
2024-01-01 00:00:07.980,0.016375,-0.459528,9.548977,-0.028797,-0.451345,-0.112908
2024-01-01 00:00:07.990,0.017206,-0.469946,10.948646,-0.295771,0.321404,0.221417
2024-01-01 00:00:08.000,0.542563,-0.64234,8.932029,0.233453,0.318952,-0.221435
2024-01-01 00:00:08.010,-0.298403,-0.740285,8.970933,0.125808,-0.203101,0.066731
2024-01-01 00:00:08.020,0.055582,-0.563115,7.635358,0.576409,-0.045577,0.096318
2024-01-01 00:00:08.030,-0.267311,0.073767,11.357738,-0.253895,0.019122,-0.113948
2024-01-01 00:00:08.040,1.804753,-0.413004,14.664646,0.205643,-0.192071,-0.15356
2024-01-01 00:00:08.050,1.877221,0.237598,15.346932,-0.327886,-0.35102,0.152576
2024-01-01 00:00:08.060,2.184449,0.016059,14.621768,0.039337,-0.042072,-0.148629
2024-01-01 00:00:08.070,1.779164,-0.91063,16.107167,0.244127,-0.064216,-0.091
2024-01-01 00:00:08.080,2.782141,0.302992,15.116464,-0.518034,-0.077682,0.133096
2024-01-01 00:00:08.090,-0.517307,0.375075,8.602783,-0.051233,0.044543,0.005211
2024-01-01 00:00:08.100,-0.108059,-0.459761,10.218626,-0.140802,0.285904,-0.269572
2024-01-01 00:00:08.110,-0.254274,0.194381,8.483513,-0.175489,-0.060619,0.262059
2024-01-01 00:00:08.120,0.836715,-0.396216,9.035232,0.096303,0.034089,-0.079502
2024-01-01 00:00:08.130,0.113658,0.045182,7.860706,0.280171,0.145374,-0.060414
2024-01-01 00:00:08.140,0.596664,-0.584957,8.492554,-0.03332,0.110829,0.038368
2024-01-01 00:00:08.150,-0.859025,-0.829491,9.975175,0.051372,-0.122885,0.093762
2024-01-01 00:00:08.160,0.154422,-0.177091,7.992411,0.028577,0.019275,0.294166
2024-01-01 00:00:08.170,0.514429,-0.057237,8.439644,0.000451,0.109508,-0.24901
2024-01-01 00:00:08.180,0.047581,-0.183967,9.807808,-0.272336,-0.22567,0.123893
2024-01-01 00:00:08.190,0.616114,-0.547733,9.307055,0.277111,0.252708,0.111451
2024-01-01 00:00:08.200,-0.299122,-0.184993,11.653032,0.073799,0.286318,-0.020575
2024-01-01 00:00:08.210,0.814955,0.124576,11.506721,0.09872,-0.144556,0.118091
2024-01-01 00:00:08.220,1.329338,-0.020768,9.006998,-0.201627,0.038734,0.140141
2024-01-01 00:00:08.230,-0.209811,0.084425,10.325464,-0.114805,0.128456,-0.207294
2024-01-01 00:00:08.240,-0.257612,-0.309995,10.503236,-0.044034,-0.109123,0.262465
2024-01-01 00:00:08.250,0.84042,0.542037,9.257213,-0.383531,0.096323,-0.233814
2024-01-01 00:00:08.260,0.913388,-0.544098,8.426325,-0.422009,0.032651,-0.170297
2024-01-01 00:00:08.270,-0.302344,0.225545,9.798621,-0.150187,-0.293584,-0.039268
2024-01-01 00:00:08.280,-0.242973,0.546743,9.650083,0.13063,0.091832,0.288741
2024-01-01 00:00:08.290,-0.162942,0.222468,9.406831,-0.163284,-0.220028,-0.046238
2024-01-01 00:00:08.300,-0.777429,-0.093688,10.219232,-0.254701,0.187841,-0.00479
2024-01-01 00:00:08.310,-0.53121,-0.24439,9.115425,-0.203671,-0.134242,0.214812
2024-01-01 00:00:08.320,-0.580644,0.479294,8.744172,-0.113836,-0.032257,-0.045048
2024-01-01 00:00:08.330,-0.443979,-0.658268,9.910924,-0.088465,0.274456,-0.176766
2024-01-01 00:00:08.340,-0.020057,-0.448779,10.1671,0.54138,0.099276,-0.062585
2024-01-01 00:00:08.350,0.135435,-0.18391,8.721368,0.263655,-0.215895,0.205619
2024-01-01 00:00:08.360,0.896577,0.572539,10.668669,0.256194,-0.202983,0.01063
2024-01-01 00:00:08.370,-0.577298,0.175681,8.171951,0.292145,-0.119861,0.289599
2024-01-01 00:00:08.380,0.569184,-0.447818,9.275129,-0.249705,0.078929,0.11069
2024-01-01 00:00:08.390,-0.123739,-0.143548,9.571291,-0.305591,0.07166,-0.096721
2024-01-01 00:00:08.400,-0.028602,-0.284186,9.221366,-0.276718,-0.16862,0.007661
2024-01-01 00:00:08.410,0.390214,-0.328348,9.287206,0.333627,-0.233442,-0.127983
2024-01-01 00:00:08.420,-0.649214,0.452834,11.541118,-0.136798,0.056317,-0.100265
2024-01-01 00:00:08.430,0.221128,-0.634568,9.022762,-0.312839,-0.036372,0.671863
2024-01-01 00:00:08.440,0.096251,0.744222,12.068618,-0.107749,0.431443,0.152794
2024-01-01 00:00:08.450,0.28476,0.383139,10.21443,-0.059651,0.007321,0.129165
2024-01-01 00:00:08.460,0.167212,0.504633,9.895169,0.067103,0.362851,-0.093477
2024-01-01 00:00:08.470,3.475777,-0.214156,15.904618,0.062738,-0.234077,0.235438
2024-01-01 00:00:08.480,1.687227,-0.069363,17.804689,-0.207045,-0.314643,0.164912
2024-01-01 00:00:08.490,1.748951,-0.662976,14.544728,0.171414,-0.224017,0.282243
2024-01-01 00:00:08.500,1.695669,-0.242709,14.427389,-0.159798,0.237826,0.274967
2024-01-01 00:00:08.510,1.734795,0.228365,14.765598,-0.039069,0.35122,-0.221863
2024-01-01 00:00:08.520,-0.368569,0.599559,9.839739,0.171694,-0.156436,-0.166476
2024-01-01 00:00:08.530,0.687549,-0.512171,8.213317,-0.160455,-0.092113,-0.150568
2024-01-01 00:00:08.540,0.821407,-0.169083,9.830668,-0.142338,-0.233796,-0.141591
2024-01-01 00:00:08.550,-0.330034,-0.069991,11.37687,0.147917,-0.362328,0.048518
2024-01-01 00:00:08.560,-0.48131,-0.645692,9.950082,-0.214433,0.143682,-0.085021
2024-01-01 00:00:08.570,0.272596,0.273558,9.539207,-0.096198,0.044604,0.31089
2024-01-01 00:00:08.580,-0.319323,-0.334918,9.238078,0.138936,0.002098,0.285702
2024-01-01 00:00:08.590,0.365993,-0.090388,10.641303,0.513523,-0.280011,-0.000969
2024-01-01 00:00:08.600,0.11734,-0.209072,9.04594,0.151351,0.327991,0.293299
2024-01-01 00:00:08.610,-0.876479,-0.365148,11.518286,0.11816,-0.100671,0.22322
2024-01-01 00:00:08.620,0.894845,-0.003259,11.598744,0.1327,0.106725,-0.067606
2024-01-01 00:00:08.630,1.038466,-0.099741,10.047546,-0.268298,-0.290912,-0.301382
2024-01-01 00:00:08.640,-0.354345,-0.172021,9.799346,0.028899,-0.038105,-0.032695
2024-01-01 00:00:08.650,-0.224188,-0.336986,10.763566,-0.007442,0.058275,-0.096693
2024-01-01 00:00:08.660,0.165302,0.147812,10.822908,0.080396,0.065415,0.030976
2024-01-01 00:00:08.670,0.1934,0.764963,9.064296,0.029127,0.03093,0.013384
2024-01-01 00:00:08.680,0.380803,0.064712,9.322831,0.094925,0.098904,0.009453
2024-01-01 00:00:08.690,1.162401,0.460804,8.586564,-0.077867,-0.226104,0.078553
2024-01-01 00:00:08.700,-0.10232,-0.643117,10.188467,0.014652,0.039475,-0.181878
2024-01-01 00:00:08.710,-0.461615,0.07298,10.426764,-0.306957,0.022752,0.061704
2024-01-01 00:00:08.720,-0.797591,-0.507643,8.561049,-0.079977,0.046335,-0.065942
2024-01-01 00:00:08.730,-0.42266,-0.683225,9.38885,0.347708,0.014469,0.029997
2024-01-01 00:00:08.740,-0.019156,-0.342033,8.563521,0.079702,-0.254643,0.143611
2024-01-01 00:00:08.750,1.037703,0.551373,8.97843,-0.00523,-0.26356,-0.18366
2024-01-01 00:00:08.760,-0.299309,0.439477,10.319801,0.474031,-0.442854,-0.042194
2024-01-01 00:00:08.770,0.129405,0.112414,9.131382,-0.340209,0.163507,-0.01778
2024-01-01 00:00:08.780,-0.009497,-0.709027,9.531676,-0.277364,0.165532,-0.07714
2024-01-01 00:00:08.790,0.687188,-0.090799,8.304411,0.428178,0.16871,0.134974
2024-01-01 00:00:08.800,1.461199,0.139566,9.983003,0.01149,0.061358,-0.108058
2024-01-01 00:00:08.810,-0.306975,0.081203,9.769038,-0.060646,-0.426624,-0.08331
2024-01-01 00:00:08.820,-0.283018,-0.852939,9.135567,-0.299801,-0.205342,-0.106488
2024-01-01 00:00:08.830,0.603786,-0.411861,9.635124,0.111924,0.034083,0.163808
2024-01-01 00:00:08.840,0.394304,-0.029642,9.976809,0.136115,0.027104,-0.073867
2024-01-01 00:00:08.850,1.067859,0.248088,9.056084,-0.273624,-0.04455,0.069007
2024-01-01 00:00:08.860,0.337656,-1.015929,8.444162,-0.035069,0.073783,0.296356
2024-01-01 00:00:08.870,-0.207761,-0.074999,11.480517,-0.083879,0.00233,-0.011223
2024-01-01 00:00:08.880,0.341546,0.066174,9.224096,0.063994,0.024154,0.166809
2024-01-01 00:00:08.890,0.641108,0.393031,9.720478,-0.279813,-0.127813,0.250703
2024-01-01 00:00:08.900,0.474444,0.320516,10.745229,0.312987,0.196402,0.154079
2024-01-01 00:00:08.910,0.293331,0.269497,13.075082,0.228956,-0.086154,-0.00252
2024-01-01 00:00:08.920,0.616805,-0.370052,8.658601,-0.090794,-0.26613,0.096316
2024-01-01 00:00:08.930,0.676145,-0.882642,10.22618,-0.054105,-0.1542,-0.193107
2024-01-01 00:00:08.940,0.799233,-0.181826,9.155373,-0.034106,-0.069693,-0.117006
2024-01-01 00:00:08.950,0.375116,0.463355,9.311511,-0.194577,0.198801,-0.090701
2024-01-01 00:00:08.960,-0.096636,0.644612,9.14366,-0.110857,-0.008454,0.336092
2024-01-01 00:00:08.970,0.084837,0.3287,8.768544,-0.067568,-0.03723,-0.121888
2024-01-01 00:00:08.980,0.697664,0.198613,9.771797,0.403217,-0.249733,-0.124122
2024-01-01 00:00:08.990,-0.472393,0.175621,8.44579,0.236655,0.157097,-0.156588
2024-01-01 00:00:09.000,0.213185,-0.257261,10.685986,0.233664,-0.13039,0.083972
2024-01-01 00:00:09.010,-0.227448,-0.060166,9.860889,0.092481,-0.020006,0.021393
2024-01-01 00:00:09.020,0.016622,0.772112,10.200837,-0.279332,0.296037,0.163014
2024-01-01 00:00:09.030,0.739265,-0.436027,9.378682,-0.010373,0.101753,0.100689
2024-01-01 00:00:09.040,0.110503,0.746997,9.470263,0.242622,-0.325651,-0.207058
2024-01-01 00:00:09.050,0.026852,-0.14897,10.076054,-0.314566,-0.353902,-0.121092
2024-01-01 00:00:09.060,-0.786337,0.613145,8.73302,0.159138,-0.012862,0.204799
2024-01-01 00:00:09.070,0.431521,-0.650793,9.478787,0.580652,-0.242548,-0.030495
2024-01-01 00:00:09.080,0.373251,0.271039,9.014686,0.265454,0.129709,0.178139
2024-01-01 00:00:09.090,1.250902,-0.34083,8.986046,0.353507,0.008453,-0.022452
2024-01-01 00:00:09.100,-0.177973,-0.654703,7.857978,0.054585,0.033077,-0.145148
2024-01-01 00:00:09.110,0.126724,0.101094,11.049145,0.241983,-0.141349,-0.045489
2024-01-01 00:00:09.120,0.144206,0.466982,9.174814,-0.179463,0.348277,-0.145207
2024-01-01 00:00:09.130,0.912162,-0.39087,10.886356,0.198966,0.568519,-0.084833
2024-01-01 00:00:09.140,-0.055105,-0.693445,10.798847,0.163597,-0.055717,0.030139
2024-01-01 00:00:09.150,0.161344,-0.042487,8.620193,0.072478,0.070608,0.076741
2024-01-01 00:00:09.160,0.351516,-0.040448,8.803002,0.329002,0.019483,-0.238529
2024-01-01 00:00:09.170,0.107907,0.253653,12.178977,-0.134696,-0.051937,-0.002605
2024-01-01 00:00:09.180,-0.25815,0.439282,11.429957,-0.046764,-0.166414,-0.087992
2024-01-01 00:00:09.190,0.112233,-0.027485,9.780839,0.023866,-0.216994,-0.097262
2024-01-01 00:00:09.200,0.620828,0.858356,10.048122,-0.257403,-0.227119,0.019903
2024-01-01 00:00:09.210,-0.593582,0.103731,9.226341,0.056733,0.081048,-0.082568
2024-01-01 00:00:09.220,0.07689,-0.160257,10.210013,-0.429733,-0.103935,0.207321
2024-01-01 00:00:09.230,-0.404845,-0.745511,9.146463,0.261739,-0.515659,0.178209
2024-01-01 00:00:09.240,0.691036,-0.121506,7.929666,0.011659,0.088972,0.177274
2024-01-01 00:00:09.250,-0.880783,-0.155613,8.587297,-0.130223,-0.007652,-0.074237
2024-01-01 00:00:09.260,-0.323197,0.444237,9.829515,-0.208593,0.269335,-0.144375
2024-01-01 00:00:09.270,0.218123,0.213945,8.763537,-0.058645,0.074624,0.012304
2024-01-01 00:00:09.280,0.905264,-0.545576,9.747755,0.172065,-0.295735,-0.022552
2024-01-01 00:00:09.290,-0.03802,0.079685,8.815724,0.136935,-0.445935,-0.091323
2024-01-01 00:00:09.300,-0.321044,0.31065,9.086166,-0.176384,-0.143894,-0.17636
2024-01-01 00:00:09.310,1.087779,0.706867,10.599349,-0.21151,-0.125021,-0.006228
2024-01-01 00:00:09.320,-0.837314,0.410559,10.038969,0.164225,0.188632,-0.06061
2024-01-01 00:00:09.330,-1.27146,0.351968,9.801058,-0.180587,-0.001774,0.103252
2024-01-01 00:00:09.340,0.254438,0.027796,10.623217,0.014977,0.226738,0.099766
2024-01-01 00:00:09.350,-0.290313,0.179633,10.254659,0.030939,-0.264967,0.16512
2024-01-01 00:00:09.360,-0.590528,0.578021,11.14836,0.078016,0.193053,-0.188894
2024-01-01 00:00:09.370,0.409607,-0.616543,9.384538,0.214568,0.144198,0.060159
2024-01-01 00:00:09.380,0.140978,-0.161651,9.412502,-0.315741,-0.403647,-0.10912
2024-01-01 00:00:09.390,-0.326178,-0.35739,8.606214,-0.47779,0.264524,-0.183062
2024-01-01 00:00:09.400,-0.740336,0.175396,9.413107,-0.141862,0.018692,-0.06429
2024-01-01 00:00:09.410,0.504498,0.569101,10.702605,0.450382,0.078409,0.160306
2024-01-01 00:00:09.420,0.375979,-0.27616,11.012748,0.505544,-0.172979,-0.055848
2024-01-01 00:00:09.430,-0.057348,-1.105755,10.698474,0.457794,0.255049,0.234818
2024-01-01 00:00:09.440,1.067818,-0.190693,8.150014,-0.048245,-0.23717,0.082332
2024-01-01 00:00:09.450,-0.618777,0.422573,10.812126,-0.445529,0.166418,-0.059114
2024-01-01 00:00:09.460,-0.882135,0.248708,8.109003,-0.58576,0.164121,0.174007
2024-01-01 00:00:09.470,-0.400096,0.198079,10.640938,-0.15351,-0.194833,0.06681
2024-01-01 00:00:09.480,-0.02636,-0.129525,9.469726,-0.049518,0.396675,-0.139884
2024-01-01 00:00:09.490,0.140711,-0.59168,10.459984,0.325156,0.046306,0.27882
2024-01-01 00:00:09.500,-0.139495,0.238375,8.577219,0.216951,0.130779,0.038922
2024-01-01 00:00:09.510,0.203576,-0.385939,10.893564,0.056851,-0.305424,0.002819
2024-01-01 00:00:09.520,-0.723703,1.010363,8.454605,-0.222461,0.423546,-0.12833
2024-01-01 00:00:09.530,0.834857,0.263917,9.191546,-0.240195,-0.244911,0.176931
2024-01-01 00:00:09.540,-0.047504,-0.268608,8.886563,0.063532,0.204977,0.077591
2024-01-01 00:00:09.550,0.646076,-0.282827,8.186936,0.174263,-0.198954,0.094386
2024-01-01 00:00:09.560,0.198181,-0.042996,9.897457,0.09797,-0.123798,-0.07613
2024-01-01 00:00:09.570,0.264118,-0.110794,11.480994,-0.258649,0.157751,0.125115
2024-01-01 00:00:09.580,0.329468,0.516647,12.277421,0.162667,0.205511,0.136772
2024-01-01 00:00:09.590,0.258887,0.086236,9.899889,0.106478,-0.254257,-0.100317
2024-01-01 00:00:09.600,0.371654,-0.338453,10.843154,-0.267667,0.218094,-0.212549
2024-01-01 00:00:09.610,0.768582,0.874518,10.024734,-0.19608,0.208996,0.087206
2024-01-01 00:00:09.620,0.113638,0.02281,10.271567,0.172124,-0.187591,-0.236002
2024-01-01 00:00:09.630,0.409981,0.355665,9.493444,-0.058627,0.31973,0.022802
2024-01-01 00:00:09.640,2.00411,-0.281366,15.644485,0.397287,-0.291372,-0.067087
2024-01-01 00:00:09.650,2.888748,0.167977,15.961275,0.125282,-0.124955,0.1828
2024-01-01 00:00:09.660,1.664876,0.143919,14.928809,-0.121658,0.095801,-0.058927
2024-01-01 00:00:09.670,3.097394,-0.874152,15.392302,-0.002551,-0.170713,0.166091
2024-01-01 00:00:09.680,2.032779,0.932266,15.40994,0.015846,0.052764,-0.077131
2024-01-01 00:00:09.690,-0.827346,0.597052,10.574588,-0.182098,0.048215,0.149999
2024-01-01 00:00:09.700,0.074076,-0.183743,8.823707,-0.228147,-0.037415,0.309051
2024-01-01 00:00:09.710,-0.393818,-0.50991,9.762313,0.175347,0.16648,-0.160207
2024-01-01 00:00:09.720,0.486102,0.160782,11.578987,0.211318,-0.045672,0.043805
2024-01-01 00:00:09.730,-0.37738,0.040106,10.886988,0.150945,0.046308,0.412317
2024-01-01 00:00:09.740,-0.258006,0.164532,11.05826,0.37883,0.229294,0.009988
2024-01-01 00:00:09.750,-1.092627,0.088624,9.832604,-0.135443,0.158137,0.009268
2024-01-01 00:00:09.760,-0.261546,0.234187,10.106987,0.418568,0.157203,0.118275
2024-01-01 00:00:09.770,-1.401608,0.669524,10.737269,-0.22523,-0.229836,0.006162
2024-01-01 00:00:09.780,-0.915892,0.262805,11.253548,-0.253171,0.104959,-0.256084
2024-01-01 00:00:09.790,0.43971,-0.485571,8.004377,-0.43999,-0.1757,0.169843
2024-01-01 00:00:09.800,0.454389,0.630322,8.592954,-0.111449,-0.256283,-0.300442
2024-01-01 00:00:09.810,0.246021,0.758948,11.021498,-0.125931,-0.014341,-0.062519
2024-01-01 00:00:09.820,-0.559154,1.458141,9.553822,0.131484,-0.180859,0.181114
2024-01-01 00:00:09.830,-0.027589,-0.519728,9.188524,0.060973,0.158124,-0.053481
2024-01-01 00:00:09.840,-0.002083,0.112357,8.64965,-0.298243,0.162907,-0.104054
2024-01-01 00:00:09.850,-0.669824,-0.963179,9.296499,-0.098182,-0.380525,0.13189
2024-01-01 00:00:09.860,0.86934,0.255887,8.512528,-0.092866,-0.165661,-0.127667
2024-01-01 00:00:09.870,0.507335,-0.253597,11.74468,-0.443996,-0.291957,-0.183334
2024-01-01 00:00:09.880,-0.127773,0.889786,9.789242,-0.245237,-0.092526,0.041177
2024-01-01 00:00:09.890,0.015547,-0.358337,9.756384,-0.192703,0.091035,-0.027438
2024-01-01 00:00:09.900,0.120497,-0.781416,10.354089,0.358406,-0.048458,-0.186551
2024-01-01 00:00:09.910,-1.180633,-0.218007,10.700362,0.047863,-0.117952,0.095543
2024-01-01 00:00:09.920,-0.14293,-0.913861,10.685136,0.165542,0.260035,0.069673
2024-01-01 00:00:09.930,-0.394357,0.347459,10.803315,-0.374659,-0.460971,-0.053963
2024-01-01 00:00:09.940,-0.579187,-0.955307,9.226342,0.298554,0.247374,-0.0437
2024-01-01 00:00:09.950,-0.162546,0.013164,9.534414,0.325276,-0.108858,0.070559
2024-01-01 00:00:09.960,1.039512,-0.961196,10.521508,-0.499586,-0.015622,0.178554
2024-01-01 00:00:09.970,0.370567,-0.14817,9.32206,-0.176329,-0.105473,-0.042419
2024-01-01 00:00:09.980,-0.330284,0.760227,9.805275,0.123941,0.308578,0.098203
2024-01-01 00:00:09.990,0.331096,0.166836,10.178936,0.161097,-0.246196,0.08478
2024-01-01 00:00:10.000,0.809177,-0.399452,10.536453,-0.169624,0.002347,0.131896
2024-01-01 00:00:10.010,0.534669,-0.014435,8.16529,-0.076375,0.105488,0.005896
2024-01-01 00:00:10.020,0.034481,0.008335,10.471283,-0.149345,-0.322201,-0.136849
2024-01-01 00:00:10.030,-0.374091,0.218639,9.593759,0.027605,-0.18398,-0.069375
2024-01-01 00:00:10.040,0.403748,-0.632309,10.46454,0.299295,-0.029636,0.051428
2024-01-01 00:00:10.050,0.227533,0.274122,10.528817,-0.192761,-0.177333,0.27277
2024-01-01 00:00:10.060,0.517645,-1.251052,11.297643,0.250205,-0.163118,-0.072603
2024-01-01 00:00:10.070,2.423288,-0.291385,16.716215,-0.195418,-0.069973,0.120718
2024-01-01 00:00:10.080,2.662904,-0.225875,16.709848,-0.211907,0.129916,-0.049208
2024-01-01 00:00:10.090,1.7465,0.292977,16.799684,0.204649,-0.068544,0.01657
2024-01-01 00:00:10.100,2.817783,0.010469,15.733584,0.230484,0.215685,0.22731
2024-01-01 00:00:10.110,2.170262,-0.650213,15.493778,0.212852,-0.199552,0.114644
2024-01-01 00:00:10.120,1.20002,-0.455658,10.61753,-0.328949,-0.250384,-0.186195
2024-01-01 00:00:10.130,-0.398523,0.091909,10.487321,-0.116488,0.385269,-0.085871
2024-01-01 00:00:10.140,1.003821,-0.036577,9.524052,0.205747,-0.131592,0.188433
2024-01-01 00:00:10.150,0.114442,-0.267903,10.184543,0.010385,-0.262182,0.021282
2024-01-01 00:00:10.160,-0.376682,-0.222434,9.777529,-0.268423,-0.348411,-0.172326
2024-01-01 00:00:10.170,-0.279807,0.322047,9.019941,0.114579,0.215021,-0.122843
2024-01-01 00:00:10.180,-0.185241,-0.239485,11.003934,-0.178702,-0.068261,0.105524
2024-01-01 00:00:10.190,0.245274,-0.040751,9.86107,0.448631,-0.050742,0.149162
2024-01-01 00:00:10.200,0.30233,1.003813,11.705465,0.38621,-0.03184,0.002678
2024-01-01 00:00:10.210,-0.331742,-0.658596,8.306095,0.151024,0.202589,0.371297
2024-01-01 00:00:10.220,-0.014083,-0.856662,9.294868,0.340252,-0.035906,0.123623
2024-01-01 00:00:10.230,1.238768,0.362489,9.840197,0.016198,0.468811,-0.036522
2024-01-01 00:00:10.240,0.998952,-0.31394,10.862305,0.191359,0.026752,-0.122356
2024-01-01 00:00:10.250,0.252304,-0.147217,10.179589,0.36943,0.212357,-0.146233
2024-01-01 00:00:10.260,0.021976,-0.361363,10.097249,0.061375,0.161048,0.050313
2024-01-01 00:00:10.270,0.069408,-0.120184,8.767056,-0.063797,-0.007289,-0.073317
2024-01-01 00:00:10.280,0.354767,0.739484,8.739598,-0.426155,-0.117394,0.251062
2024-01-01 00:00:10.290,-0.59143,0.371065,10.108381,-0.020783,0.066393,0.219947
2024-01-01 00:00:10.300,-0.148828,0.398865,8.547929,0.205856,0.10202,0.09496
2024-01-01 00:00:10.310,-0.964859,-0.655147,9.317907,0.236408,-0.114517,-0.176849
2024-01-01 00:00:10.320,0.230851,-0.532524,10.273449,0.126091,0.033268,-0.100833
2024-01-01 00:00:10.330,0.374241,-1.313358,8.901154,-0.135325,0.247241,0.188352
2024-01-01 00:00:10.340,-0.279403,-0.37442,11.295275,-0.494205,0.41399,-0.08446
2024-01-01 00:00:10.350,0.910158,0.442571,10.942386,-0.123804,0.170874,0.168321
2024-01-01 00:00:10.360,-0.708799,0.239139,8.356122,-0.076086,0.372552,0.071191
2024-01-01 00:00:10.370,-0.846775,-0.102472,8.94737,-0.078232,-0.125875,0.007758
2024-01-01 00:00:10.380,0.129789,-0.010316,7.695199,0.154639,0.140376,-0.105425
2024-01-01 00:00:10.390,0.605485,-0.318678,9.085946,0.496419,0.267704,-0.014137
2024-01-01 00:00:10.400,0.973731,0.094721,10.519063,0.030882,-0.179267,0.028447
2024-01-01 00:00:10.410,-0.26535,0.354295,9.427064,-0.054183,-0.097118,0.154881
2024-01-01 00:00:10.420,0.623747,-0.747509,10.23633,-0.064805,0.347581,-0.13286
2024-01-01 00:00:10.430,-0.022268,0.138617,8.401536,0.031096,-0.19502,-0.039423
2024-01-01 00:00:10.440,-0.099822,0.431344,10.548287,-0.207073,-0.268226,0.006723
2024-01-01 00:00:10.450,0.510976,-0.192025,9.296413,0.03005,0.305596,0.099402
2024-01-01 00:00:10.460,0.377206,0.324144,9.821259,0.112703,0.239353,-0.13627
2024-01-01 00:00:10.470,-0.911549,1.302059,9.724073,0.052422,0.086424,-0.197485
2024-01-01 00:00:10.480,0.853809,-0.048269,8.633563,0.114385,-0.009142,0.101095
2024-01-01 00:00:10.490,0.798038,0.181944,8.743166,0.108437,-0.087705,-0.227692
2024-01-01 00:00:10.500,-0.361732,-0.341425,10.705403,-0.442974,0.05639,0.192747
2024-01-01 00:00:10.510,0.228873,0.083847,10.179148,0.159218,0.315961,-0.023389
2024-01-01 00:00:10.520,0.285673,0.212922,10.781505,-0.167754,0.047713,-0.23213
2024-01-01 00:00:10.530,0.150735,0.090134,10.110374,-0.27396,0.433392,-0.072063
2024-01-01 00:00:10.540,-0.318214,-0.471711,9.942295,-0.276113,-0.179588,0.056869
2024-01-01 00:00:10.550,-0.388366,0.095463,8.213095,0.108385,-0.003936,-0.079905
2024-01-01 00:00:10.560,-0.014777,0.676412,9.559857,-0.055644,-0.074612,0.003004
2024-01-01 00:00:10.570,0.678131,0.207539,9.784664,-0.420492,-0.217028,0.111012
2024-01-01 00:00:10.580,0.314337,0.445015,11.617015,0.119509,-0.030617,-0.030329
2024-01-01 00:00:10.590,-0.214308,-0.109642,10.445572,-0.359902,0.083466,-0.140559
2024-01-01 00:00:10.600,0.446235,0.346904,11.231164,0.034955,0.104846,-0.044848
2024-01-01 00:00:10.610,-1.64717,0.129189,10.362842,0.059625,0.43409,0.212226
2024-01-01 00:00:10.620,0.664274,-0.439891,9.151902,0.221394,0.092893,0.25276
2024-01-01 00:00:10.630,-1.005989,0.147348,9.918363,0.445421,0.230027,-0.302989
2024-01-01 00:00:10.640,-0.209581,-0.458759,10.028554,-0.341169,0.013219,0.163654
2024-01-01 00:00:10.650,-0.647449,-0.29277,8.941093,-0.013118,0.335611,0.037522
2024-01-01 00:00:10.660,-0.74865,0.087583,9.454365,-0.069084,0.47969,0.138597
2024-01-01 00:00:10.670,0.671248,0.137505,9.619624,0.108437,0.106217,-0.082573
2024-01-01 00:00:10.680,-0.270448,-0.550139,11.295519,0.053917,-0.198532,-0.26524
2024-01-01 00:00:10.690,0.200366,0.487574,7.884899,-0.088137,-0.109761,0.087673
2024-01-01 00:00:10.700,-0.027132,0.26461,10.925623,-0.110226,0.056387,-0.141147
2024-01-01 00:00:10.710,0.275849,-0.326007,8.943277,-0.279113,0.0913,-0.208244
2024-01-01 00:00:10.720,0.044422,-0.711287,8.540552,0.246965,0.139685,-0.19776
2024-01-01 00:00:10.730,-0.74189,-0.067033,10.901682,0.114801,0.09204,0.090137
2024-01-01 00:00:10.740,0.576091,-0.206294,10.487152,0.229442,0.001397,0.020918
2024-01-01 00:00:10.750,-0.285515,0.052339,10.970681,-0.077599,-0.12724,0.11737
2024-01-01 00:00:10.760,-0.900093,-0.167978,10.550809,-0.164209,0.080228,0.100361
2024-01-01 00:00:10.770,-0.247558,-0.92865,11.715769,-0.269579,0.370997,-0.06314
2024-01-01 00:00:10.780,0.867814,-0.179649,10.326931,0.089729,0.203986,-0.010571
2024-01-01 00:00:10.790,0.491641,-0.141379,9.665227,-0.259948,0.106941,-0.076716
2024-01-01 00:00:10.800,-0.201608,0.293132,10.127275,0.462166,0.205913,-0.031549
2024-01-01 00:00:10.810,-0.201958,-0.322987,10.960458,-0.326911,-0.074213,-0.145088
2024-01-01 00:00:10.820,-0.185985,0.776555,9.088922,0.068415,-0.101653,0.058573
2024-01-01 00:00:10.830,1.20088,-0.884325,9.206873,0.391714,-0.149557,0.161268
2024-01-01 00:00:10.840,0.220854,0.606546,9.52415,0.149772,-0.025057,-0.122492
2024-01-01 00:00:10.850,0.248672,-0.10377,7.86284,0.043918,-0.084401,0.19219
2024-01-01 00:00:10.860,0.595761,0.397644,9.93775,-0.242121,0.241655,0.017028
2024-01-01 00:00:10.870,0.13808,0.036916,8.064954,-0.345442,-0.095065,0.036162
2024-01-01 00:00:10.880,-0.149791,0.527158,9.85909,0.192513,-0.160544,-0.254914
2024-01-01 00:00:10.890,-0.113539,-0.179194,10.610566,0.376537,0.388515,-0.271089
2024-01-01 00:00:10.900,-0.041403,-0.508222,9.368794,-0.109712,-0.090275,0.021617
2024-01-01 00:00:10.910,-0.021524,0.657125,11.361668,-0.284765,0.030706,0.11846
2024-01-01 00:00:10.920,0.420752,-0.052496,8.458745,-0.614542,0.090265,-0.100707
2024-01-01 00:00:10.930,0.030038,0.102493,10.912154,-0.245191,-0.227339,0.250514
2024-01-01 00:00:10.940,0.423649,0.571196,10.434637,-0.028414,0.247097,0.11024
2024-01-01 00:00:10.950,-0.046674,-0.477382,8.222326,0.399781,0.127424,-0.136251
2024-01-01 00:00:10.960,0.045471,0.275474,12.318027,0.168283,0.311677,0.004627
2024-01-01 00:00:10.970,-1.15546,-0.272885,9.751023,0.076271,-0.135844,0.371539
2024-01-01 00:00:10.980,0.529866,-0.061142,8.998152,-0.10003,0.019825,-0.186385
2024-01-01 00:00:10.990,0.200357,0.033436,8.508163,-0.145791,0.007871,0.07924
2024-01-01 00:00:11.000,0.577099,-0.694003,9.606439,0.351412,0.052778,-0.048412
2024-01-01 00:00:11.010,-1.67476,-0.36029,9.692123,0.050185,-0.290923,0.106034
2024-01-01 00:00:11.020,1.207603,0.625006,9.904968,-0.52565,0.022167,0.190091
2024-01-01 00:00:11.030,-0.080718,0.409952,9.534479,-0.168385,-0.285293,-0.057936
2024-01-01 00:00:11.040,0.640807,-0.028977,10.39586,-0.214554,0.071667,0.167837
2024-01-01 00:00:11.050,-0.601326,0.112469,9.451365,-0.136566,-0.42573,0.333181
2024-01-01 00:00:11.060,0.354337,-0.136117,8.019771,0.140728,-0.370317,0.009941
2024-01-01 00:00:11.070,-0.609138,0.627555,9.671811,-0.026861,0.16371,0.117733
2024-01-01 00:00:11.080,-0.360694,-0.092683,7.61961,-0.019216,-0.109368,-0.088566
2024-01-01 00:00:11.090,1.106789,0.10725,10.137309,0.328368,-0.197572,0.002889
2024-01-01 00:00:11.100,-0.110262,0.530154,8.903951,-0.174115,0.254169,-0.026501
2024-01-01 00:00:11.110,0.125731,-0.359612,9.961141,0.46605,0.065525,0.11954
2024-01-01 00:00:11.120,0.503117,0.721096,11.025782,-0.167827,0.174418,0.180701
2024-01-01 00:00:11.130,0.286628,-0.707991,8.932218,0.0223,-0.033248,-0.016448
2024-01-01 00:00:11.140,0.08698,0.753872,10.791874,-0.070301,0.535926,0.230043
2024-01-01 00:00:11.150,0.211039,-0.1724,9.409028,0.030855,-0.120903,0.229507
2024-01-01 00:00:11.160,1.389775,-0.112272,11.432056,0.111148,0.348899,0.127028
2024-01-01 00:00:11.170,-0.033318,-0.874319,9.472161,0.108459,-0.012273,-0.077404
2024-01-01 00:00:11.180,0.116286,-0.210388,9.032376,-0.188279,-0.330902,-0.091774
2024-01-01 00:00:11.190,0.607541,-0.481015,10.445833,-0.280729,0.09657,-0.121857
2024-01-01 00:00:11.200,0.63927,-0.281097,9.406807,0.625793,0.062953,0.142375
2024-01-01 00:00:11.210,0.6864,-0.06352,9.031491,-0.120996,-0.210264,-0.181765
2024-01-01 00:00:11.220,0.369346,0.443074,9.367903,0.174803,-0.184444,0.101526
2024-01-01 00:00:11.230,-0.660943,0.096037,9.76873,-0.40191,-0.00494,-0.162166
2024-01-01 00:00:11.240,3.000532,0.142331,16.705785,-0.069903,0.06995,0.123532
2024-01-01 00:00:11.250,1.393126,-0.506787,13.674582,-0.0318,-0.494133,0.002583
2024-01-01 00:00:11.260,2.230999,-0.407437,15.485354,0.118204,0.210624,0.200046
2024-01-01 00:00:11.270,1.61984,0.83209,16.042161,-0.680614,-0.0989,0.171218
2024-01-01 00:00:11.280,2.018912,-0.340104,15.642979,0.041535,-0.266349,0.21526
2024-01-01 00:00:11.290,0.190107,0.766162,11.021887,-0.287435,0.188213,0.219123
2024-01-01 00:00:11.300,0.185825,-0.11244,9.741216,0.081086,-0.004724,0.021545
2024-01-01 00:00:11.310,0.243976,0.001058,9.639253,-0.259082,0.243233,-0.173819
2024-01-01 00:00:11.320,0.933129,0.495151,10.358023,-0.213871,0.08759,-0.157878
2024-01-01 00:00:11.330,0.262256,0.588377,9.901885,-0.068407,-0.000303,-0.313027
2024-01-01 00:00:11.340,-0.141184,-0.051262,9.448794,-0.263082,-0.030546,-0.16255
2024-01-01 00:00:11.350,0.557483,-0.179601,10.287536,-0.118884,0.096543,0.010324
2024-01-01 00:00:11.360,0.687811,-0.025869,9.206281,-0.298344,-0.082706,-0.083948
2024-01-01 00:00:11.370,-0.709864,0.156339,9.244539,-0.458293,-0.170515,-0.02702
2024-01-01 00:00:11.380,0.345447,0.412317,9.3215,0.254489,0.121982,0.073907
2024-01-01 00:00:11.390,0.405453,0.001957,11.06186,-0.324012,-0.028898,-0.04561
2024-01-01 00:00:11.400,-0.172066,0.286297,6.829916,-0.04467,0.006714,-0.168274
2024-01-01 00:00:11.410,0.795502,0.757905,10.176008,0.188223,0.217876,-0.007985
2024-01-01 00:00:11.420,-0.08677,0.176394,9.841708,-0.153736,-0.022775,-0.134774
2024-01-01 00:00:11.430,0.072615,0.144171,8.254859,-0.206291,0.003007,-0.040618
2024-01-01 00:00:11.440,-0.100079,-0.702648,10.096559,0.05656,-0.11993,0.201417
2024-01-01 00:00:11.450,0.009009,-1.216976,10.250166,0.279483,0.086148,-0.040576
2024-01-01 00:00:11.460,-0.633921,0.179663,10.355534,-0.292329,0.069966,0.265644
2024-01-01 00:00:11.470,-0.832709,-0.043866,7.356529,-0.037537,0.180155,0.214745
2024-01-01 00:00:11.480,0.922023,-0.238138,11.074183,-0.433124,-0.115826,-0.086896
2024-01-01 00:00:11.490,-0.489755,0.112657,9.127446,-0.0983,-0.091563,-0.166669
2024-01-01 00:00:11.500,-0.573273,-0.027943,10.445212,0.008551,0.158427,-0.007883
2024-01-01 00:00:11.510,-1.245198,0.521711,10.495641,-0.213656,0.050443,0.172999
2024-01-01 00:00:11.520,-0.36948,0.039835,8.99888,-0.114248,-0.181244,-0.073529
2024-01-01 00:00:11.530,-0.765077,-0.345527,10.421058,-0.352057,0.261311,0.136214
2024-01-01 00:00:11.540,0.949495,0.458051,9.453342,0.01927,-0.33969,0.181266
2024-01-01 00:00:11.550,0.583927,-0.100445,7.893562,0.263924,0.156857,-0.116104
2024-01-01 00:00:11.560,-0.397923,0.243576,10.890395,-0.274286,-0.253042,-0.101408
2024-01-01 00:00:11.570,1.302471,-0.22085,9.092928,-0.155668,0.377158,0.106899
2024-01-01 00:00:11.580,0.567706,-0.30061,9.019423,0.125637,-0.30892,0.022777
2024-01-01 00:00:11.590,-0.187834,0.038936,9.437083,0.303023,0.23045,-0.102909
2024-01-01 00:00:11.600,-1.445281,0.005935,10.061873,-0.373297,-0.016327,-0.052827
2024-01-01 00:00:11.610,1.324738,0.221968,9.757013,-0.042196,-0.073321,-0.010578
2024-01-01 00:00:11.620,-0.80352,-0.124276,10.317072,0.070783,0.037079,-0.234728
2024-01-01 00:00:11.630,-0.951452,-0.8495,8.570704,-0.025514,0.12638,0.114846
2024-01-01 00:00:11.640,0.591301,-0.200201,9.123144,-0.619198,-0.18088,-0.071804
2024-01-01 00:00:11.650,1.410787,0.36722,9.70268,0.125273,-0.163158,-0.417557
2024-01-01 00:00:11.660,0.800456,-0.137566,11.565925,0.379834,0.129921,-0.003581
2024-01-01 00:00:11.670,2.38208,-0.113977,15.358701,0.029165,-0.341469,-0.111236
2024-01-01 00:00:11.680,2.399917,0.456298,16.468048,-0.257777,-0.116846,0.253323
2024-01-01 00:00:11.690,2.549488,-0.329359,15.499671,-0.128282,0.608137,-0.087817
2024-01-01 00:00:11.700,2.49485,-0.713701,15.016519,0.442478,-0.193603,-0.164647
2024-01-01 00:00:11.710,2.218599,-0.074308,15.235731,0.227491,0.229561,0.07619
2024-01-01 00:00:11.720,0.060254,-0.223979,9.654178,0.160007,-0.11719,-0.099067
2024-01-01 00:00:11.730,-0.036194,-0.446986,10.368493,0.089103,0.101809,-0.116918
2024-01-01 00:00:11.740,-0.43598,-0.08113,11.08179,-0.165284,0.130871,0.076425
2024-01-01 00:00:11.750,-0.1623,0.227371,10.142777,-0.050143,0.225791,-0.15607
2024-01-01 00:00:11.760,-0.978952,-0.004297,10.908284,-0.019481,-0.040051,-0.218591
2024-01-01 00:00:11.770,-0.056865,0.142009,8.917377,0.137394,0.397777,0.2589
2024-01-01 00:00:11.780,-0.571653,0.838882,9.426384,0.37723,-0.117867,0.086925
2024-01-01 00:00:11.790,-0.638151,-0.158616,9.139875,0.279585,0.046844,-0.039631
2024-01-01 00:00:11.800,0.104024,0.128764,10.100924,-0.354846,0.049055,-0.000522
2024-01-01 00:00:11.810,0.804925,-0.235562,9.477892,0.055999,-0.224394,0.07588
2024-01-01 00:00:11.820,0.531017,-0.391526,10.485186,0.184191,-0.057174,0.146001
2024-01-01 00:00:11.830,-0.908142,-0.270578,8.948637,0.154715,0.032303,-0.113396
2024-01-01 00:00:11.840,-0.572252,-0.221474,9.849812,-0.157308,-0.086424,0.054922
2024-01-01 00:00:11.850,0.544001,0.166294,10.445481,0.728527,0.488185,-0.076006
2024-01-01 00:00:11.860,-0.568123,1.086682,7.899182,-0.319271,-0.167725,-0.028347
2024-01-01 00:00:11.870,-0.129894,-0.331242,11.772933,-0.270797,0.235885,0.024104
2024-01-01 00:00:11.880,0.318068,-0.192731,9.548028,0.058399,0.171292,-0.001002
2024-01-01 00:00:11.890,-0.559945,-0.029201,7.936433,0.529201,-0.002772,0.110335
2024-01-01 00:00:11.900,0.060933,0.183097,9.956268,-0.209049,-0.173042,0.073063
2024-01-01 00:00:11.910,-0.7714,0.121919,9.840942,-0.066457,-0.153651,-0.226225
2024-01-01 00:00:11.920,-0.347741,0.594023,9.734231,0.269323,-0.103593,-0.203673
2024-01-01 00:00:11.930,0.184914,-1.122449,10.72705,-0.004466,-0.357148,-0.055458
2024-01-01 00:00:11.940,-0.921149,-1.104194,10.501536,-0.083651,-0.200693,0.274294
2024-01-01 00:00:11.950,0.254705,-0.229393,10.085595,0.141408,-0.296495,-0.127739
2024-01-01 00:00:11.960,-0.011356,0.507611,10.226484,0.068129,0.269175,-0.031233
2024-01-01 00:00:11.970,0.319477,-0.724269,9.713448,0.25761,0.123692,-0.080452
2024-01-01 00:00:11.980,0.129478,-1.391331,11.452684,0.322867,0.157195,-0.083107
2024-01-01 00:00:11.990,0.788814,0.264228,8.441448,0.076751,0.117766,0.026736
2024-01-01 00:00:12.000,0.072411,0.112716,9.939206,0.072933,0.033394,0.210117
2024-01-01 00:00:12.010,-0.248304,-0.50433,9.870161,0.053528,0.292136,0.068395
2024-01-01 00:00:12.020,0.070719,-0.455911,10.562447,0.122283,-0.122153,-0.12053
2024-01-01 00:00:12.030,0.314162,-0.448603,9.029266,0.013793,0.021334,0.412984
2024-01-01 00:00:12.040,0.028253,0.051134,8.196754,-0.000152,0.149412,0.011786
2024-01-01 00:00:12.050,0.023472,-0.289733,9.955093,0.299157,-0.264242,-0.086583
2024-01-01 00:00:12.060,-0.405927,0.228554,10.070194,0.379029,0.619318,0.211814
2024-01-01 00:00:12.070,-0.383322,-1.32055,11.188177,-0.376888,0.005713,-0.070361
2024-01-01 00:00:12.080,-0.811056,-0.39638,8.634661,0.002505,0.028398,0.249437
2024-01-01 00:00:12.090,1.011693,-0.520913,10.878323,-0.172174,0.251376,-0.130596
2024-01-01 00:00:12.100,-0.719264,-0.118583,12.000332,-0.077743,0.182991,0.214505
2024-01-01 00:00:12.110,-0.400672,-0.248901,9.460492,0.100629,0.007616,0.030157
2024-01-01 00:00:12.120,-0.415419,0.369083,8.61562,0.16736,0.026026,0.193658
2024-01-01 00:00:12.130,0.51749,-0.860129,9.433467,-0.028032,-0.30083,0.285265
2024-01-01 00:00:12.140,-0.170555,0.021044,9.822957,-0.478335,-0.111293,-0.169891
2024-01-01 00:00:12.150,0.721507,0.258286,10.331617,-0.241261,0.103442,0.191366
2024-01-01 00:00:12.160,-0.389446,0.858885,9.262842,0.224125,0.088779,-0.211336
2024-01-01 00:00:12.170,0.161328,-0.222865,11.24887,-0.685107,0.244233,-0.157078
2024-01-01 00:00:12.180,-0.483039,0.150095,8.778835,0.296857,-0.0241,-0.120511
2024-01-01 00:00:12.190,1.240432,-0.834467,8.200887,0.130307,-0.277457,0.075545
2024-01-01 00:00:12.200,-0.686729,-1.106519,10.833928,0.329044,0.211346,0.004952
2024-01-01 00:00:12.210,0.179154,0.390793,7.705521,-0.049642,0.287218,-0.02507
2024-01-01 00:00:12.220,0.366481,-0.002572,9.621139,-0.515351,0.179649,0.021935
2024-01-01 00:00:12.230,0.239279,0.54518,12.694479,0.107591,-0.032727,0.088693
2024-01-01 00:00:12.240,-0.107143,-0.635336,9.798857,0.318663,0.208877,0.100237
2024-01-01 00:00:12.250,-0.075069,0.240507,8.773066,0.23118,0.685782,0.164125
2024-01-01 00:00:12.260,0.025334,0.864515,9.756896,-0.165673,0.02303,0.273005
2024-01-01 00:00:12.270,-0.085004,0.194156,9.762999,0.02169,-0.262347,-0.003204
2024-01-01 00:00:12.280,0.557363,0.127947,9.958633,-0.133209,-0.117257,-0.078163
2024-01-01 00:00:12.290,1.278235,0.003958,10.422726,-0.204817,0.125095,0.09203
2024-01-01 00:00:12.300,-0.32237,-0.72669,8.848614,0.238847,-0.320961,-0.171638
2024-01-01 00:00:12.310,-0.792089,0.627088,11.371319,-0.299383,0.033881,-0.101806
2024-01-01 00:00:12.320,-0.051049,-0.282583,10.03678,-0.223454,0.076067,0.149907
2024-01-01 00:00:12.330,1.491717,0.233374,10.48243,-0.276006,0.307024,-0.018619
2024-01-01 00:00:12.340,-0.464725,-0.72306,9.228836,-0.372562,0.262039,-0.181229
2024-01-01 00:00:12.350,0.947819,-0.545618,11.000161,0.036604,0.172917,-0.22347
2024-01-01 00:00:12.360,0.97013,0.663871,9.572175,0.290376,-0.432536,0.007308
2024-01-01 00:00:12.370,-0.320112,-0.160662,10.066792,-0.046219,0.184211,0.171284
2024-01-01 00:00:12.380,0.329014,0.672285,8.94669,-0.376437,0.141103,0.169282
2024-01-01 00:00:12.390,0.94162,-0.03619,8.887639,0.209986,0.051189,0.016632
2024-01-01 00:00:12.400,-0.219231,-0.852062,10.446728,0.421425,-0.346044,0.301336
2024-01-01 00:00:12.410,-0.11772,0.41267,9.399575,-0.161561,-0.155355,-0.015723
2024-01-01 00:00:12.420,-0.336357,-0.272884,9.020043,-0.119639,-0.233365,-0.020785
2024-01-01 00:00:12.430,-0.586783,0.323213,9.214927,0.128915,-0.403002,-0.385115
2024-01-01 00:00:12.440,-0.375445,0.011663,10.456671,0.405468,-0.000583,-0.067104
2024-01-01 00:00:12.450,-0.707743,-0.713846,9.228014,-0.129959,-0.159564,0.127802
2024-01-01 00:00:12.460,0.019709,0.076003,9.701146,-0.333112,0.525061,0.234594
2024-01-01 00:00:12.470,-0.445237,1.015973,9.823904,0.157855,-0.033754,-0.124535
2024-01-01 00:00:12.480,0.135187,0.228056,8.036069,0.199767,0.258751,0.069338
2024-01-01 00:00:12.490,-0.899697,-0.026608,8.448914,0.001533,-0.31382,0.157032
2024-01-01 00:00:12.500,0.191331,0.497454,10.121124,-0.139533,-0.106018,0.001681
2024-01-01 00:00:12.510,0.481988,0.097455,9.1281,0.248595,0.01938,-0.342492
2024-01-01 00:00:12.520,-1.152878,0.096931,10.787682,0.132009,-0.181631,0.037093
2024-01-01 00:00:12.530,0.216298,-0.504986,10.70449,-0.192109,-0.08444,0.114215
2024-01-01 00:00:12.540,0.7099,0.108178,10.475375,0.012274,-0.04359,-0.142113
2024-01-01 00:00:12.550,-0.699475,0.478996,11.493653,-0.337927,-0.046782,-0.038123
2024-01-01 00:00:12.560,0.967165,-0.386762,9.733126,0.171473,0.371024,-0.173324
2024-01-01 00:00:12.570,0.242298,0.658972,10.410346,-0.065558,0.075645,-0.385522
2024-01-01 00:00:12.580,-0.407673,-0.042423,9.269312,-0.108928,0.095902,0.154051
2024-01-01 00:00:12.590,-0.032248,-0.410682,12.078933,-0.008219,0.107931,-0.000562
2024-01-01 00:00:12.600,0.322853,0.461505,11.645258,0.010077,0.122525,0.239651
2024-01-01 00:00:12.610,0.04395,-0.132671,9.820992,0.223733,-0.016577,0.128598
2024-01-01 00:00:12.620,0.311536,0.351352,10.16767,0.147773,-0.064149,-0.053131
2024-01-01 00:00:12.630,-0.53238,-0.134968,11.067622,-0.039102,0.033363,-0.012477
2024-01-01 00:00:12.640,0.097933,-0.027676,9.673867,0.190917,0.231361,0.084927
2024-01-01 00:00:12.650,-0.81748,0.228321,9.202491,0.100184,0.225248,0.145033
2024-01-01 00:00:12.660,-0.064316,0.134569,10.618615,-0.10665,-0.04808,0.048401
2024-01-01 00:00:12.670,-0.522685,-0.923133,9.882572,-0.03118,0.153569,0.165839
2024-01-01 00:00:12.680,-0.42532,-0.518687,9.979306,-0.037056,-0.038917,-0.0445
2024-01-01 00:00:12.690,0.714771,0.429945,9.038132,0.126315,0.006774,-0.149572
2024-01-01 00:00:12.700,0.63105,-0.061126,8.22081,-0.091756,-0.094705,-0.009721
2024-01-01 00:00:12.710,0.352234,-0.242278,10.028479,-0.097602,-0.036329,0.030778
2024-01-01 00:00:12.720,-0.63163,-0.628476,10.647271,0.492189,0.268266,-0.18023
2024-01-01 00:00:12.730,-0.182963,-0.499486,9.601084,0.234934,0.018484,-0.200508
2024-01-01 00:00:12.740,0.701474,-0.935284,11.138985,-0.19015,0.027057,0.067108
2024-01-01 00:00:12.750,0.081948,-0.046852,9.158737,0.142735,-0.289444,-0.060954
2024-01-01 00:00:12.760,1.341152,-0.276837,8.834187,0.029588,-0.061849,-0.024876
2024-01-01 00:00:12.770,0.227436,-0.447144,9.747799,0.097888,-0.048263,-0.053954
2024-01-01 00:00:12.780,0.111052,-0.031514,9.733585,0.034335,-0.165829,0.22809
2024-01-01 00:00:12.790,-0.178747,0.168373,10.522375,0.297411,0.004333,0.189264
2024-01-01 00:00:12.800,0.07722,0.968313,9.093004,0.086405,-0.085836,-0.185603
2024-01-01 00:00:12.810,-0.088166,-0.699397,11.075761,-0.015522,0.015999,-0.079919
2024-01-01 00:00:12.820,0.409464,0.53633,11.629792,0.260548,0.024301,0.127501
2024-01-01 00:00:12.830,0.553213,0.450157,9.773784,0.058321,-0.191151,0.09029
2024-01-01 00:00:12.840,1.601502,-0.360408,16.620232,0.03037,-0.07974,-0.006219
2024-01-01 00:00:12.850,1.286215,0.094017,14.486529,0.078506,0.015475,-0.17064
2024-01-01 00:00:12.860,0.994214,-0.211701,16.458795,-0.023402,0.23686,-0.102381
2024-01-01 00:00:12.870,2.349746,0.0859,16.43294,0.002307,0.051344,-0.077515
2024-01-01 00:00:12.880,1.417978,0.698124,16.262852,-0.146674,-0.132387,0.041549
2024-01-01 00:00:12.890,-1.244909,0.280153,9.795601,-0.187792,0.079801,0.255559
2024-01-01 00:00:12.900,0.224696,0.235282,7.076729,-0.249643,0.34151,-0.103032
2024-01-01 00:00:12.910,1.441577,-0.199061,9.216274,-0.347996,0.183341,-0.153905
2024-01-01 00:00:12.920,-0.003511,-0.686525,9.230903,-0.219929,0.109505,-0.016288
2024-01-01 00:00:12.930,0.484857,-0.096437,8.904919,-0.043567,0.145118,0.154761
2024-01-01 00:00:12.940,0.047318,0.558177,9.923099,0.025779,0.287991,-0.217032
2024-01-01 00:00:12.950,-0.057183,-0.706468,9.422375,-0.067824,0.215125,0.218045
2024-01-01 00:00:12.960,0.531456,-0.488084,9.047069,-0.588926,0.113352,-0.025805
2024-01-01 00:00:12.970,-0.167851,0.058411,8.830398,0.393647,0.213728,-0.110148
2024-01-01 00:00:12.980,0.15462,-0.455501,9.148007,0.27162,-0.21633,-0.240028
2024-01-01 00:00:12.990,0.186022,-0.366621,10.847611,0.11144,-0.300453,0.105978
2024-01-01 00:00:13.000,-0.386323,-0.195957,9.19842,0.476873,0.03142,-0.025676
2024-01-01 00:00:13.010,0.573648,-0.631735,9.333579,-0.244341,0.013736,0.025606
2024-01-01 00:00:13.020,-0.10117,-0.450629,9.387463,0.471906,-0.108782,-0.135122
2024-01-01 00:00:13.030,-0.43701,0.325406,10.123637,-0.241304,0.165171,-0.047864
2024-01-01 00:00:13.040,0.310237,-0.604789,10.232122,0.059684,-0.372573,-0.072987
2024-01-01 00:00:13.050,-0.519539,-0.739176,6.993084,-0.318459,-0.106954,-0.015089
2024-01-01 00:00:13.060,0.016296,-0.29145,10.755217,0.003674,-0.096991,-0.100433
2024-01-01 00:00:13.070,-0.005273,0.338603,11.138928,0.096542,-0.32726,-0.230127
2024-01-01 00:00:13.080,0.627919,-0.091096,8.838367,-0.038673,0.298946,0.409275
2024-01-01 00:00:13.090,0.274494,-0.214915,8.91043,0.178469,-0.27184,-0.204511
2024-01-01 00:00:13.100,-0.014472,0.02052,9.393426,0.024754,-0.117668,0.027219
2024-01-01 00:00:13.110,0.472873,-0.807564,9.110545,-0.130604,0.181596,-0.265804
2024-01-01 00:00:13.120,0.803888,0.228851,10.017177,-0.141703,0.129209,-0.299557
2024-01-01 00:00:13.130,0.322554,0.177377,8.009075,0.202728,-0.221635,0.014674
2024-01-01 00:00:13.140,0.005986,-0.189346,8.775693,-0.163436,0.136498,0.026155
2024-01-01 00:00:13.150,-0.758569,0.465341,11.234065,0.228851,0.057957,0.189225
2024-01-01 00:00:13.160,-0.615902,-0.52158,8.951211,0.305678,0.466607,0.059932
2024-01-01 00:00:13.170,-0.176496,0.521771,10.96042,-0.417178,0.080788,-0.022472
2024-01-01 00:00:13.180,-0.35245,0.071469,10.138759,0.283232,-0.028248,-0.14244
2024-01-01 00:00:13.190,-0.108116,-0.155689,8.136066,0.515106,-0.1713,0.224852
2024-01-01 00:00:13.200,0.032758,-0.009194,10.397807,0.063001,-0.148849,0.139328
2024-01-01 00:00:13.210,0.306295,-0.049621,9.701134,0.149771,-0.165154,-0.186949
2024-01-01 00:00:13.220,-0.040766,0.564503,9.388602,0.259251,0.27422,0.005695
2024-01-01 00:00:13.230,0.28132,-0.498072,10.036634,-0.068871,0.003594,0.021608
2024-01-01 00:00:13.240,0.037282,-0.352741,10.249131,0.04557,0.113049,-0.051848
2024-01-01 00:00:13.250,-1.142314,0.479394,10.464664,-0.32855,0.30285,0.115778
2024-01-01 00:00:13.260,-0.543171,-0.275494,10.90012,0.034659,-0.471693,0.12476
2024-01-01 00:00:13.270,1.972681,0.416587,15.841607,0.124528,0.255775,-0.028573
2024-01-01 00:00:13.280,1.356494,0.786159,14.191263,0.129041,0.011079,-0.04213
2024-01-01 00:00:13.290,2.402909,-0.18587,15.025783,0.266356,0.08701,0.224844
2024-01-01 00:00:13.300,2.941157,0.315198,18.186908,-0.193701,-0.165681,0.139926
2024-01-01 00:00:13.310,2.760749,-0.533698,16.134299,-0.133152,-0.151025,0.010854
2024-01-01 00:00:13.320,-0.123423,0.34914,12.002065,0.473877,0.097769,-0.244381
2024-01-01 00:00:13.330,0.862012,0.092254,11.101056,-0.037582,0.47692,0.0516
2024-01-01 00:00:13.340,0.085967,0.218828,10.033715,0.050008,0.200663,0.104713
2024-01-01 00:00:13.350,-0.19492,-0.298642,10.088862,-0.016753,0.253105,-0.413178
2024-01-01 00:00:13.360,-0.3547,-0.768417,9.776156,-0.20542,-0.0384,0.03778
2024-01-01 00:00:13.370,-0.174903,0.232804,8.202183,0.405882,-0.120041,-0.062504
2024-01-01 00:00:13.380,-0.224463,-0.95453,9.826697,-0.131925,-0.156161,-0.033128
2024-01-01 00:00:13.390,0.098543,-0.146806,10.930116,-0.281821,-0.097655,-0.136107
2024-01-01 00:00:13.400,0.092852,0.435391,9.255213,-0.112685,-0.410556,-0.022228
2024-01-01 00:00:13.410,0.001761,0.088772,10.191139,-0.500427,-0.144984,0.208799
2024-01-01 00:00:13.420,0.252659,0.901303,10.597892,-0.162822,-0.112071,-0.06696
2024-01-01 00:00:13.430,0.688491,0.474215,8.968364,-0.242032,-0.035072,0.144836
2024-01-01 00:00:13.440,0.54908,-0.302493,9.392455,0.154357,0.02635,-0.12095
2024-01-01 00:00:13.450,-0.858642,0.012635,8.868228,-0.168354,0.07249,0.113813
2024-01-01 00:00:13.460,-1.476805,-0.021914,9.049332,0.221951,-0.002985,0.000248
2024-01-01 00:00:13.470,0.54027,-0.731915,8.618708,0.349621,-0.116289,0.052804
2024-01-01 00:00:13.480,-0.790398,-0.435029,8.976905,0.195294,-0.392672,0.001073
2024-01-01 00:00:13.490,-0.129971,-0.259408,11.12328,-0.053847,-0.115062,0.096244
2024-01-01 00:00:13.500,-0.676618,-0.941956,8.963001,0.035279,-0.19449,-0.385138
2024-01-01 00:00:13.510,-1.041995,0.02197,9.927,-0.381246,0.093213,-0.212974
2024-01-01 00:00:13.520,0.313101,-0.115221,9.344746,-0.033445,0.181857,0.062562
2024-01-01 00:00:13.530,0.438981,-0.773881,10.900687,-0.21511,0.187714,-0.306531
2024-01-01 00:00:13.540,-0.333367,0.186989,11.023087,0.173582,0.151391,-0.079587
2024-01-01 00:00:13.550,-1.49827,0.331163,10.609438,0.643188,-0.026705,-0.008151
2024-01-01 00:00:13.560,-0.315866,0.105026,10.093236,0.124955,-0.104391,-0.124221
2024-01-01 00:00:13.570,0.226561,-0.149914,9.596224,-0.497785,-0.149421,-0.103734
2024-01-01 00:00:13.580,-0.855181,0.273601,8.707278,-0.090308,-0.3015,0.040737
2024-01-01 00:00:13.590,0.106028,0.31467,11.608153,0.030623,0.198371,0.151394
2024-01-01 00:00:13.600,-0.008853,0.142205,9.107151,0.021839,-0.034942,-0.143767
2024-01-01 00:00:13.610,0.334975,-0.381466,10.424006,-0.182703,-0.249268,-0.086259
2024-01-01 00:00:13.620,0.069147,0.127956,10.79031,0.061323,-0.165298,-0.109689
2024-01-01 00:00:13.630,-0.562677,0.553029,9.296254,-0.310625,-0.173395,-0.363207
2024-01-01 00:00:13.640,0.691917,-0.276001,10.770369,-0.236227,0.008605,0.021257
2024-01-01 00:00:13.650,-0.09167,0.970507,10.51705,0.161449,0.213494,0.140208
2024-01-01 00:00:13.660,-0.015789,-0.243157,11.408712,-0.253916,-0.069598,0.152496
2024-01-01 00:00:13.670,-0.539662,0.014991,9.375761,0.134553,-0.450507,-0.130615
2024-01-01 00:00:13.680,-0.256328,-0.311092,8.620319,-0.342366,-0.037836,-0.187755
2024-01-01 00:00:13.690,-0.511637,0.103285,9.342321,0.441206,-0.031239,0.003241
2024-01-01 00:00:13.700,-0.100006,-0.805952,10.003231,-0.193567,-0.044984,0.124391
2024-01-01 00:00:13.710,0.989795,-0.252599,9.863858,-0.055917,-0.125492,0.023228
2024-01-01 00:00:13.720,-0.793302,-0.505215,9.445991,0.082653,0.043488,0.043396
2024-01-01 00:00:13.730,-0.933042,0.062608,8.043611,-0.141337,0.013228,0.171275
2024-01-01 00:00:13.740,0.850704,0.460031,10.245291,0.035851,-0.004966,-0.11087
2024-01-01 00:00:13.750,-0.121041,0.298842,11.634813,0.143839,0.082528,-0.032996
2024-01-01 00:00:13.760,-0.386891,-1.09713,10.239525,0.240153,-0.085967,0.245191
2024-01-01 00:00:13.770,0.601325,0.944661,10.373572,0.197874,-0.097317,-0.029522
2024-01-01 00:00:13.780,-0.350197,0.136597,10.339626,-0.042953,0.276025,-0.190101
2024-01-01 00:00:13.790,1.05589,-0.359209,10.177348,-0.036658,0.111871,-0.100403
2024-01-01 00:00:13.800,0.392011,0.072687,10.671977,0.587277,0.165389,-0.140727
2024-01-01 00:00:13.810,-0.282135,0.081505,10.1758,0.237472,0.245221,0.053574
2024-01-01 00:00:13.820,1.247463,-0.308484,9.520711,-0.230456,0.105189,-0.134392
2024-01-01 00:00:13.830,-0.350255,0.091556,9.073551,0.024997,0.185678,0.040655
2024-01-01 00:00:13.840,0.429117,-0.281017,9.57965,-0.083786,-0.315869,-0.11041
2024-01-01 00:00:13.850,0.173066,-0.187058,10.100633,-0.033834,0.040831,-0.318507
2024-01-01 00:00:13.860,0.752732,-0.317473,9.51756,-0.307374,-0.036544,0.045993
2024-01-01 00:00:13.870,0.902944,-0.662754,10.100826,-0.102981,0.335537,0.02227
2024-01-01 00:00:13.880,0.018506,0.067464,10.216302,0.452889,0.185529,0.077664
2024-01-01 00:00:13.890,-0.435664,0.27076,10.580858,0.144769,-0.126089,-0.100948
2024-01-01 00:00:13.900,0.265979,0.238185,10.996842,-0.62279,0.074559,-0.116932
2024-01-01 00:00:13.910,-0.391889,0.379297,9.882172,0.304181,0.033536,0.06022
2024-01-01 00:00:13.920,1.164241,0.15004,8.600045,0.272407,0.090866,0.227853
2024-01-01 00:00:13.930,0.078952,-0.246439,9.49071,-0.089821,-0.203768,0.001675
2024-01-01 00:00:13.940,-0.211247,0.388429,9.850767,0.179316,0.072003,0.063688
2024-01-01 00:00:13.950,0.106791,-0.627988,8.111547,-0.21485,-0.04563,-0.048238
2024-01-01 00:00:13.960,-0.778976,-0.416651,11.094792,-0.117564,0.05649,-0.231545
2024-01-01 00:00:13.970,-0.561836,-0.446039,9.941728,0.374637,-0.144877,0.145114
2024-01-01 00:00:13.980,0.694139,0.499634,10.162828,-0.067933,-0.117013,0.136262
2024-01-01 00:00:13.990,-0.379849,0.436134,11.073385,-0.467433,0.234768,0.106616
2024-01-01 00:00:14.000,-0.605376,0.225427,9.226992,-0.015826,-0.21031,-0.027292
2024-01-01 00:00:14.010,0.310319,0.495875,10.341104,-0.019647,-0.195551,0.089558
2024-01-01 00:00:14.020,0.685633,-0.406756,9.708354,0.299592,-0.010316,0.134064
2024-01-01 00:00:14.030,0.415735,0.16126,9.639683,0.003584,-0.154378,0.243024
2024-01-01 00:00:14.040,0.575965,-0.057906,9.095568,-0.105396,-0.177006,0.148279
2024-01-01 00:00:14.050,-0.437617,0.391768,11.351016,0.261264,0.021015,0.009573
2024-01-01 00:00:14.060,-0.822162,-0.053303,9.462587,0.030198,-0.301013,-0.196238
2024-01-01 00:00:14.070,0.868146,-0.178075,10.457144,-0.187506,-0.201592,0.023349
2024-01-01 00:00:14.080,-0.18659,0.250224,8.075243,0.288749,0.410819,0.038487
2024-01-01 00:00:14.090,-0.145044,0.405316,10.901725,0.048415,0.091895,0.106354
2024-01-01 00:00:14.100,0.768028,-0.309176,10.783506,0.000731,-0.149313,0.203084
2024-01-01 00:00:14.110,0.32164,-0.028254,9.900146,0.044477,0.083643,-0.014273
2024-01-01 00:00:14.120,0.263617,-0.489635,9.600033,-0.267667,0.113466,0.315148
2024-01-01 00:00:14.130,1.251913,-1.155603,10.18008,-0.131913,0.198883,-0.263893
2024-01-01 00:00:14.140,-0.372114,0.092733,11.927589,0.000896,-0.025431,0.062901
2024-01-01 00:00:14.150,0.536524,0.28168,8.178653,-0.048666,0.1953,-0.119778
2024-01-01 00:00:14.160,0.032968,0.121232,10.533532,0.318107,-0.407689,-0.286083
2024-01-01 00:00:14.170,0.155313,-0.901867,8.966572,0.054351,-0.211262,-0.030266
2024-01-01 00:00:14.180,0.883837,-0.162303,9.791571,0.213726,0.032774,-0.218576
2024-01-01 00:00:14.190,0.293656,-1.026208,9.580661,0.002349,0.065927,-0.024214
2024-01-01 00:00:14.200,0.31127,0.633624,9.41372,0.264072,-0.182356,0.005215
2024-01-01 00:00:14.210,0.620177,-0.502409,9.800318,0.099382,0.051884,0.167781
2024-01-01 00:00:14.220,-0.211034,0.58075,8.760665,0.003355,-0.124768,-0.226138
2024-01-01 00:00:14.230,-0.485273,0.437559,10.762198,-0.003321,-0.055392,0.136267
2024-01-01 00:00:14.240,-0.604161,-0.416613,8.150058,-0.23861,0.204955,0.014712
2024-01-01 00:00:14.250,-1.137046,-0.524026,10.30939,0.126729,0.181787,0.154327
2024-01-01 00:00:14.260,1.189002,0.162081,9.507889,-0.010051,-0.199412,-0.064763
2024-01-01 00:00:14.270,-0.63793,-0.390584,8.72666,-0.125498,-0.21145,-0.199837
2024-01-01 00:00:14.280,-0.12794,0.047409,9.997245,0.276615,-0.082235,-0.182625
2024-01-01 00:00:14.290,-0.160067,-0.223356,8.369509,-0.312554,-0.005349,-0.193771
2024-01-01 00:00:14.300,0.177758,-0.823964,9.846743,-0.105624,-0.13158,0.071672
2024-01-01 00:00:14.310,0.4717,-1.031815,8.493554,0.25693,0.208128,0.221538
2024-01-01 00:00:14.320,0.497569,0.104864,10.236769,0.078881,0.069478,-0.084743
2024-01-01 00:00:14.330,-0.337165,-0.259777,8.954785,-0.011965,0.081217,0.09437
2024-01-01 00:00:14.340,-0.096638,-0.255859,9.39274,0.062751,-0.253308,-0.228516
2024-01-01 00:00:14.350,0.163402,0.321907,10.081962,0.044854,0.233458,0.027048
2024-01-01 00:00:14.360,-0.143806,0.542834,9.095244,-0.379166,-0.564034,0.100284
2024-01-01 00:00:14.370,0.929448,-0.126079,9.756372,-0.087315,0.166811,-0.217219
2024-01-01 00:00:14.380,0.283906,-0.157561,8.409404,0.40413,0.186862,-0.030583
2024-01-01 00:00:14.390,0.424943,0.231366,10.393686,-0.164831,-0.08648,0.107388
2024-01-01 00:00:14.400,0.383311,-0.627718,11.442898,-0.079575,0.254582,-0.440066
2024-01-01 00:00:14.410,0.678561,0.103231,12.393352,-0.135405,-0.01262,0.200318
2024-01-01 00:00:14.420,0.104676,0.255302,9.894349,-0.021754,0.012486,0.053052
2024-01-01 00:00:14.430,-0.749893,0.314674,10.539246,-0.145781,0.067906,0.107509
2024-01-01 00:00:14.440,2.28712,-0.895942,13.816565,0.121685,0.637315,-0.061908
2024-01-01 00:00:14.450,1.679353,-0.352203,16.85433,0.049328,0.268887,-0.258408
2024-01-01 00:00:14.460,1.750327,-0.406285,16.182167,0.193387,0.140226,0.080109
2024-01-01 00:00:14.470,2.395065,0.046208,15.016265,-0.262735,-0.182561,-0.012389
2024-01-01 00:00:14.480,2.772037,0.222392,16.60864,-0.085085,0.028718,0.004817
2024-01-01 00:00:14.490,0.0123,0.692378,9.574559,-0.056431,-0.162625,0.163141
2024-01-01 00:00:14.500,0.178583,-0.228971,9.386235,0.113912,0.164422,0.11431
2024-01-01 00:00:14.510,0.984306,-0.230177,10.24978,-0.198305,0.028093,0.288186
2024-01-01 00:00:14.520,0.139216,0.531838,8.826184,0.228913,-0.224904,0.023078
2024-01-01 00:00:14.530,1.504423,0.137196,10.755207,0.296604,0.016225,-0.103682
2024-01-01 00:00:14.540,0.327006,0.586416,8.832998,-0.247218,-0.169883,-0.028263
2024-01-01 00:00:14.550,-1.018161,0.133566,8.838489,-0.122718,0.030243,0.06235
2024-01-01 00:00:14.560,0.43562,-0.535282,8.968355,-0.132983,-0.171815,0.152378
2024-01-01 00:00:14.570,0.220405,-0.616705,10.512689,0.658097,0.005498,-0.220055
2024-01-01 00:00:14.580,0.7458,-0.71773,9.239359,-0.107475,0.150094,0.001281
2024-01-01 00:00:14.590,0.389267,0.306265,8.562834,0.419406,-0.01061,0.241431
2024-01-01 00:00:14.600,-0.080062,0.549845,9.249625,-0.316658,-0.078178,-0.036031
2024-01-01 00:00:14.610,-0.70795,0.855515,9.780354,-0.247413,0.040655,0.139652
2024-01-01 00:00:14.620,-0.120868,0.390021,8.717364,-0.171651,0.139437,0.073968
2024-01-01 00:00:14.630,-0.491813,0.537929,8.744465,-0.211422,-0.221437,0.143379
2024-01-01 00:00:14.640,-0.335688,-0.268316,11.763371,-0.066975,0.052131,-0.121464
2024-01-01 00:00:14.650,0.340345,-0.534958,9.013805,-0.177195,0.263508,-0.12081
2024-01-01 00:00:14.660,0.965622,0.393247,9.511121,-0.204835,0.114731,0.003041
2024-01-01 00:00:14.670,0.228219,0.193219,9.470232,0.289618,0.011551,-0.229833
2024-01-01 00:00:14.680,-0.691519,0.049704,9.420161,0.305948,0.127948,-0.040461
2024-01-01 00:00:14.690,0.257091,0.179198,10.38487,0.237324,0.090499,0.037931
2024-01-01 00:00:14.700,0.691952,0.149506,10.687222,0.131,0.15072,0.267695
2024-01-01 00:00:14.710,-0.352607,0.593894,9.526931,0.023186,-0.404786,0.060408
2024-01-01 00:00:14.720,-0.077495,0.59906,8.66601,-0.124258,-0.310691,0.093784
2024-01-01 00:00:14.730,0.008493,0.251756,10.989112,-0.238289,0.200966,0.174671
2024-01-01 00:00:14.740,-0.453867,0.391268,9.72179,0.090749,-0.301056,-0.144699
2024-01-01 00:00:14.750,0.374868,0.237805,11.410894,-0.293408,0.080308,-0.024762
2024-01-01 00:00:14.760,-0.069938,-0.213337,7.732384,-0.24848,-0.07041,0.363812
2024-01-01 00:00:14.770,0.242595,0.349987,9.990787,0.288228,-0.199238,-0.011868
2024-01-01 00:00:14.780,-0.513192,-0.645093,11.585095,0.475162,0.06993,0.167465
2024-01-01 00:00:14.790,-0.25296,0.48753,9.48316,0.098324,0.040207,0.144561
2024-01-01 00:00:14.800,0.417717,-0.552586,9.601373,0.276614,0.422069,-0.221717
2024-01-01 00:00:14.810,-0.215591,0.132213,10.083407,-0.061462,-0.124962,0.046572
2024-01-01 00:00:14.820,0.998617,-0.390968,9.293002,-0.334419,0.288022,0.022012
2024-01-01 00:00:14.830,-0.23109,0.255998,9.521271,0.153043,0.070485,0.049494
2024-01-01 00:00:14.840,0.129924,-0.015694,9.497453,0.142322,-0.132204,-0.113117
2024-01-01 00:00:14.850,0.539271,-0.737734,9.22951,0.017917,0.159849,-0.167538
2024-01-01 00:00:14.860,-0.82017,0.194616,10.946938,-0.060594,0.113148,-0.071402
2024-01-01 00:00:14.870,1.037812,-0.267346,15.890589,0.240553,0.007169,-0.014669
2024-01-01 00:00:14.880,1.173789,0.407618,15.695881,-0.246433,0.053259,0.177748
2024-01-01 00:00:14.890,2.786089,0.000613,16.21209,-0.193445,-0.119397,0.272597
2024-01-01 00:00:14.900,1.736888,0.182922,15.219418,-0.252027,-0.165157,0.20949
2024-01-01 00:00:14.910,3.535279,-0.442971,14.747707,0.021243,0.151888,0.129028
2024-01-01 00:00:14.920,-0.326276,-0.272625,9.252452,-0.271973,-0.044788,-0.150651
2024-01-01 00:00:14.930,0.106717,-0.212166,9.81165,-0.171061,-0.016017,-0.061334
2024-01-01 00:00:14.940,0.891725,0.396311,8.830017,-0.176439,0.055964,0.031489
