timestamp,acc_x,acc_y,acc_z,gyro_x,gyro_y,gyro_z
2024-01-01 00:00:00.000,0.324822,0.096255,10.312968,0.163324,-0.003328,-0.008815
2024-01-01 00:00:00.010,0.106052,0.09911,9.864932,0.254165,0.034941,0.064323
2024-01-01 00:00:00.020,0.169583,0.183205,10.082671,0.048098,0.063724,0.030693
2024-01-01 00:00:00.030,0.149601,0.178624,10.88577,0.06113,0.160489,0.007782
2024-01-01 00:00:00.040,0.193682,0.098473,10.63585,0.080675,0.197789,0.06966
2024-01-01 00:00:00.050,0.100901,-0.068359,10.616093,0.075334,0.219651,0.065662
2024-01-01 00:00:00.060,0.057827,0.177855,10.867345,0.031177,0.206546,0.14369
2024-01-01 00:00:00.070,0.248911,0.023317,10.477875,0.113436,0.146299,0.098952
2024-01-01 00:00:00.080,-0.053555,0.316966,10.210185,0.090184,0.27051,0.071345
2024-01-01 00:00:00.090,0.285406,-0.092593,10.197342,0.045412,0.041577,-0.023038
2024-01-01 00:00:00.100,0.263362,0.053972,10.169802,-0.000837,0.079502,0.068837
2024-01-01 00:00:00.110,0.127807,-0.033979,9.769405,-0.090663,0.211702,0.133903
2024-01-01 00:00:00.120,0.215015,0.026026,9.234055,0.043876,-0.020264,-0.03379
2024-01-01 00:00:00.130,0.09064,-0.110276,9.168703,-0.116034,0.173844,0.005357
2024-01-01 00:00:00.140,0.054748,0.017313,8.953986,-0.119748,0.127607,-0.024216
2024-01-01 00:00:00.150,0.262429,-0.072193,8.625429,-0.207358,0.084518,-0.059027
2024-01-01 00:00:00.160,0.148306,-0.244259,8.744374,-0.129452,0.04367,-0.013927
2024-01-01 00:00:00.170,0.337481,-0.214483,9.142837,-0.175435,0.042029,-0.080767
2024-01-01 00:00:00.180,0.384999,-0.21442,9.490278,-0.045673,0.050273,-0.006939
2024-01-01 00:00:00.190,0.124846,-0.101547,9.686842,-0.240294,0.143055,0.045965
2024-01-01 00:00:00.200,0.048673,-0.107565,9.80489,-0.268693,0.092038,-0.023196
2024-01-01 00:00:00.210,0.184836,-0.085538,10.077832,-0.094781,-0.021303,0.084896
2024-01-01 00:00:00.220,-0.253469,-0.223245,10.066129,-0.19926,0.000374,0.086071
2024-01-01 00:00:00.230,-0.217008,-0.175124,10.693493,-0.249004,0.027478,0.119909
2024-01-01 00:00:00.240,-0.121425,-0.151551,10.723378,-0.112551,-0.097342,-0.026267
2024-01-01 00:00:00.250,-0.083221,-0.144067,10.666659,-0.006145,-0.057569,0.118637
2024-01-01 00:00:00.260,-0.131818,-0.073851,10.63321,-0.085725,0.052889,0.025895
2024-01-01 00:00:00.270,-0.147874,0.047935,10.529573,-0.087444,-0.040253,0.096464
2024-01-01 00:00:00.280,-0.087234,-0.021939,10.436079,0.068999,-0.14752,0.162804
2024-01-01 00:00:00.290,-0.18519,0.118645,10.420506,-0.1031,-0.095453,0.097254
2024-01-01 00:00:00.300,-0.122487,0.012341,10.272079,0.032059,-0.165152,-0.027359
2024-01-01 00:00:00.310,-0.160067,-0.126578,9.709995,0.118548,-0.129043,0.024854
2024-01-01 00:00:00.320,-0.255036,0.104024,9.367747,0.123939,-0.309372,0.018599
2024-01-01 00:00:00.330,-0.277007,0.005581,9.413868,0.173596,-0.180783,-0.095542
2024-01-01 00:00:00.340,-0.286449,-0.085016,9.096171,-0.00538,-0.098449,-0.006803
2024-01-01 00:00:00.350,-0.097691,0.193018,8.583733,0.236563,-0.179926,-0.062565
2024-01-01 00:00:00.360,-0.148807,0.108112,8.876226,0.104411,-0.170011,-0.125657
2024-01-01 00:00:00.370,0.117674,-0.056271,9.408533,0.187319,-0.144203,-0.068971
2024-01-01 00:00:00.380,-0.055088,0.01124,9.027953,0.154165,-0.058599,-0.004514
2024-01-01 00:00:00.390,0.184789,0.18664,9.153899,0.124046,-0.092943,-0.033101
2024-01-01 00:00:00.400,-0.143851,0.05359,9.715023,0.063985,-0.021184,-0.005009
2024-01-01 00:00:00.410,0.029691,0.220696,10.005114,0.331286,0.069219,0.029804
2024-01-01 00:00:00.420,-0.099732,0.225681,9.753405,0.021733,0.062668,0.039165
2024-01-01 00:00:00.430,0.066432,0.12394,10.26518,0.061489,-0.019038,0.101591
2024-01-01 00:00:00.440,0.217657,0.180081,10.256209,0.196958,0.058518,0.035893
2024-01-01 00:00:00.450,0.101661,0.124273,10.93078,-0.02949,0.083791,0.094196
2024-01-01 00:00:00.460,0.139727,0.126811,10.439074,-0.027573,0.084103,0.106461
2024-01-01 00:00:00.470,0.241163,0.337546,10.579017,-0.037693,0.162981,0.064532
2024-01-01 00:00:00.480,0.43757,0.017805,10.712022,0.140822,0.046285,0.075362
2024-01-01 00:00:00.490,0.117327,0.100489,10.324537,0.167298,0.10033,0.044785
2024-01-01 00:00:00.500,0.106978,0.122123,10.197347,-0.04288,0.103953,0.073058
2024-01-01 00:00:00.510,0.15843,0.152312,9.806373,-0.10978,0.169979,-0.001265
2024-01-01 00:00:00.520,0.215293,0.004388,9.479425,-0.199781,0.205874,-0.026781
2024-01-01 00:00:00.530,0.133088,0.043637,9.036495,-0.151575,0.13005,-0.09423
2024-01-01 00:00:00.540,0.246134,0.003814,8.980886,-0.228626,0.168109,-0.101679
2024-01-01 00:00:00.550,0.286282,-0.104141,8.920164,-0.177231,0.124257,-0.054972
2024-01-01 00:00:00.560,0.032558,-0.075053,9.026945,0.013524,0.214284,-0.152821
2024-01-01 00:00:00.570,0.344164,-0.105565,8.50206,-0.164082,-0.056164,-0.055407
2024-01-01 00:00:00.580,-0.041334,-0.14822,9.292308,0.054592,0.102759,-0.152419
2024-01-01 00:00:00.590,0.139843,-0.132306,9.343238,-0.214488,0.019804,-0.114104
2024-01-01 00:00:00.600,0.083195,-0.376729,9.274559,-0.204888,0.069349,-0.033164
2024-01-01 00:00:00.610,0.256366,0.006678,10.067458,0.022481,0.111828,0.02174
2024-01-01 00:00:00.620,-0.069634,-0.157591,10.023548,-0.012578,0.043726,0.094422
2024-01-01 00:00:00.630,-0.026968,-0.177136,10.047428,-0.146458,0.146899,0.037844
2024-01-01 00:00:00.640,-0.001728,-0.082464,10.306789,-0.138295,-0.096481,0.143587
2024-01-01 00:00:00.650,0.013853,-0.180586,10.783273,-0.169142,-0.00429,0.058907
2024-01-01 00:00:00.660,-0.138378,-0.035703,10.764988,-0.081175,-0.036826,0.072397
2024-01-01 00:00:00.670,0.077062,-0.155739,10.754205,-0.101172,-0.059749,0.10594
2024-01-01 00:00:00.680,-0.293758,0.045122,10.409371,-0.060185,-0.12564,0.096923
2024-01-01 00:00:00.690,-0.275458,0.064408,10.257804,-0.129213,-0.080882,0.069585
2024-01-01 00:00:00.700,-0.172884,-0.029596,10.124531,0.035706,-0.119855,0.033213
2024-01-01 00:00:00.710,-0.287553,-0.025177,9.882143,0.043433,-0.113256,-0.022289
2024-01-01 00:00:00.720,-0.365111,-0.060626,9.851167,-0.040402,-0.170402,-0.013745
2024-01-01 00:00:00.730,-0.016096,-0.036207,9.411002,-0.07854,-0.120372,0.077426
2024-01-01 00:00:00.740,-0.068865,0.076053,9.237974,0.103908,0.014894,-0.040714
2024-01-01 00:00:00.750,-0.42707,-0.121481,8.643518,0.139333,-0.110765,0.018751
2024-01-01 00:00:00.760,-0.032874,0.162975,8.884861,0.173516,-0.068957,-0.031371
2024-01-01 00:00:00.770,0.012825,0.22451,8.851288,0.183571,0.017835,0.027984
2024-01-01 00:00:00.780,-0.231036,0.144176,9.242677,0.145186,-0.047801,-0.112314
2024-01-01 00:00:00.790,0.077025,0.166647,8.962872,0.050191,-0.090116,0.005079
2024-01-01 00:00:00.800,-0.225044,0.121335,9.387678,0.155976,-0.097022,0.00333
2024-01-01 00:00:00.810,-0.077911,-0.030637,9.646503,-0.044286,0.026622,-0.137098
2024-01-01 00:00:00.820,-0.00736,0.262445,10.133254,0.187594,-0.105788,0.048091
2024-01-01 00:00:00.830,0.100917,0.063264,10.550989,0.202687,0.028063,0.002611
2024-01-01 00:00:00.840,0.119186,0.015575,10.475986,0.107293,0.022895,0.028968
2024-01-01 00:00:00.850,0.126428,0.20699,10.693903,0.088077,0.01186,0.057515
2024-01-01 00:00:00.860,0.022624,0.050908,10.644231,0.114799,0.034764,0.012169
2024-01-01 00:00:00.870,0.33272,0.053102,10.355485,0.128536,0.239066,0.092635
2024-01-01 00:00:00.880,0.246579,0.083513,10.564596,0.09102,0.05607,0.089527
2024-01-01 00:00:00.890,0.117028,0.057115,10.509698,-0.041457,0.067012,0.097945
2024-01-01 00:00:00.900,0.124085,0.055663,10.412704,0.071282,0.129148,-0.052633
2024-01-01 00:00:00.910,0.367342,0.094437,9.623694,0.058918,0.089037,-0.115742
2024-01-01 00:00:00.920,0.276928,0.058436,9.714271,-0.055453,0.093717,0.009242
2024-01-01 00:00:00.930,0.088018,-0.10757,9.660271,-0.004431,0.013111,-0.062346
2024-01-01 00:00:00.940,0.141756,-0.136463,9.21087,-0.019415,0.142553,-0.03404
2024-01-01 00:00:00.950,0.29969,-0.162364,8.897624,-0.091058,0.0246,-0.141034
2024-01-01 00:00:00.960,-0.07699,-0.280917,9.097945,-0.005502,0.131897,-0.068045
2024-01-01 00:00:00.970,0.035344,-0.158204,9.001025,0.041016,-0.072825,-0.101465
2024-01-01 00:00:00.980,0.202214,-0.250613,8.628117,-0.133859,0.075511,-0.09721
2024-01-01 00:00:00.990,-0.05744,-0.121407,8.683259,-0.140858,0.145744,0.022169
2024-01-01 00:00:01.000,0.25364,-0.180522,9.217135,-0.142221,0.010259,-0.020515
2024-01-01 00:00:01.010,-0.103002,-0.038196,9.685395,-0.046646,0.048709,-0.123324
2024-01-01 00:00:01.020,-0.166036,-0.173691,9.6483,-0.050747,-0.048694,-0.054415
2024-01-01 00:00:01.030,-0.190028,-0.141058,10.227374,-0.216435,0.025769,-0.030488
2024-01-01 00:00:01.040,-0.055452,-0.176648,10.456946,-0.241795,0.025012,0.045897
2024-01-01 00:00:01.050,-0.138281,-0.291193,10.282587,-0.18684,-0.004621,0.059821
2024-01-01 00:00:01.060,-0.207936,-0.210163,10.716939,-0.255798,-0.219454,0.06091
2024-01-01 00:00:01.070,-0.125812,-0.206987,10.520595,-0.196495,-0.113097,-0.01662
2024-01-01 00:00:01.080,-0.256028,-0.111951,10.615461,-0.062139,0.009721,0.076129
2024-01-01 00:00:01.090,-0.145671,-0.096796,10.74535,-0.076642,-0.067752,0.094958
2024-01-01 00:00:01.100,-0.110658,0.038728,10.98506,-0.056877,-0.053329,0.078261
2024-01-01 00:00:01.110,-0.15348,-0.096536,10.241586,0.086384,-0.176424,0.109489
2024-01-01 00:00:01.120,-0.329555,-0.087599,9.294901,-0.076375,0.01382,0.023673
2024-01-01 00:00:01.130,-0.090225,0.046025,9.630177,0.051528,-0.195958,-0.01413
2024-01-01 00:00:01.140,-0.173015,-0.112081,9.371319,0.015821,-0.194665,-0.073944
2024-01-01 00:00:01.150,-0.081828,0.257491,9.126668,0.125384,-0.093557,-0.039717
2024-01-01 00:00:01.160,-0.049766,0.238915,8.752612,0.145668,-0.08524,-0.080671
2024-01-01 00:00:01.170,-0.194552,0.198809,8.954804,0.023042,-0.123011,-0.076486
2024-01-01 00:00:01.180,-0.031576,0.001863,8.654006,0.214916,-0.015297,0.014896
2024-01-01 00:00:01.190,-0.185286,0.176183,8.637584,0.190403,-0.025738,-0.046488
2024-01-01 00:00:01.200,-0.002056,0.145726,9.024448,0.006723,-0.061318,-0.001042
2024-01-01 00:00:01.210,-0.237591,-0.007065,9.381655,-0.007445,-0.16277,-0.107431
2024-01-01 00:00:01.220,0.068742,0.216935,9.651833,0.149406,0.072214,-0.066988
2024-01-01 00:00:01.230,0.021335,0.082678,10.260468,0.145297,-0.060577,-0.014868
2024-01-01 00:00:01.240,-0.152858,0.06635,10.460624,0.148614,-0.050764,-0.010717
2024-01-01 00:00:01.250,0.117797,0.117565,10.356657,0.088813,0.143621,0.023249
2024-01-01 00:00:01.260,0.04117,0.213537,10.797685,0.039842,0.043982,-0.031544
2024-01-01 00:00:01.270,0.384053,0.147028,10.606672,0.029216,0.047727,0.020297
2024-01-01 00:00:01.280,0.175413,0.20348,11.007067,0.059821,0.058586,0.131343
2024-01-01 00:00:01.290,0.446262,-0.13226,10.477857,0.061378,0.202736,0.041306
2024-01-01 00:00:01.300,0.27156,0.009568,10.895955,0.132534,0.131144,-0.000391
2024-01-01 00:00:01.310,0.090323,0.022322,10.458122,0.129429,0.110348,0.142887
2024-01-01 00:00:01.320,0.235797,-0.059432,10.052207,0.05056,0.01446,-0.01959
2024-01-01 00:00:01.330,0.228819,-0.053171,9.656746,0.00112,0.078968,-0.004323
2024-01-01 00:00:01.340,0.299128,-0.150467,9.372115,0.044416,0.113574,-0.04838
2024-01-01 00:00:01.350,-0.000717,0.074148,9.141951,-0.096146,0.204739,-0.086847
2024-01-01 00:00:01.360,0.143117,-0.004032,9.076564,-0.184836,0.043474,-0.029526
2024-01-01 00:00:01.370,0.086618,-0.027412,8.789171,-0.166929,0.120565,-0.121054
2024-01-01 00:00:01.380,0.163388,-0.210577,8.713013,0.007957,0.137705,-0.071153
2024-01-01 00:00:01.390,0.134805,-0.130952,9.207018,-0.128143,-0.060843,-0.173676
2024-01-01 00:00:01.400,0.123195,-0.145258,9.066384,-0.213753,0.047873,0.001234
2024-01-01 00:00:01.410,0.135949,-0.27586,8.902217,-0.190992,0.041836,-0.079658
2024-01-01 00:00:01.420,0.00398,-0.171751,9.252902,-0.174676,-0.077267,-0.032371
2024-01-01 00:00:01.430,0.087751,-0.230026,10.030979,-0.181685,-0.012091,0.020928
2024-01-01 00:00:01.440,-0.08245,-0.24698,10.080469,-0.362863,-0.093772,-0.040828
2024-01-01 00:00:01.450,-0.115308,-0.228521,10.484251,-0.147299,-0.028369,0.121546
2024-01-01 00:00:01.460,-0.05313,-0.189012,10.597521,-0.187398,0.001621,0.004694
2024-01-01 00:00:01.470,-0.096733,-0.065225,10.904854,0.024073,-0.007208,0.070517
2024-01-01 00:00:01.480,-0.261304,0.028228,10.770311,-0.020602,-0.03287,0.015185
2024-01-01 00:00:01.490,0.104724,-0.052936,10.842577,0.017368,-0.069511,0.077684
2024-01-01 00:00:01.500,-0.295462,0.238379,10.26405,-0.058443,-0.100618,0.021118
2024-01-01 00:00:01.510,-0.373174,-0.175374,10.365418,-0.135309,-0.107858,0.01665
2024-01-01 00:00:01.520,-0.061541,-0.114766,9.958188,-0.122587,-0.10412,-0.10757
2024-01-01 00:00:01.530,-0.136617,0.041636,9.506215,-0.2128,-0.037794,-0.025737
2024-01-01 00:00:01.540,-0.150466,0.162798,9.472329,0.145604,-0.097252,-0.031591
2024-01-01 00:00:01.550,-0.266345,-0.125272,9.485836,-0.000294,-0.171425,-0.065011
2024-01-01 00:00:01.560,-0.34697,0.128593,9.237358,0.02314,-0.142488,0.035094
2024-01-01 00:00:01.570,-0.189743,-0.002227,9.037744,0.161843,-0.100844,-0.073442
2024-01-01 00:00:01.580,-0.149289,0.078801,8.694075,0.15836,-0.077571,-0.034524
2024-01-01 00:00:01.590,-0.119297,0.061845,8.933083,-0.043133,-0.035875,-0.037865
2024-01-01 00:00:01.600,-0.083673,0.082229,8.809541,0.187432,-0.037018,-0.114149
2024-01-01 00:00:01.610,0.082115,0.037386,9.095028,0.167613,-0.022388,-0.092351
2024-01-01 00:00:01.620,-0.1688,0.382741,9.864431,0.216863,-0.078325,-0.008827
2024-01-01 00:00:01.630,-0.235455,0.159009,9.517797,0.208882,-0.010645,-0.083934
2024-01-01 00:00:01.640,-0.021369,0.095847,10.089511,0.135092,-0.004824,0.055342
2024-01-01 00:00:01.650,-0.145521,-0.164704,9.924266,0.263094,0.106028,0.087779
2024-01-01 00:00:01.660,-0.245157,0.220795,10.297416,0.23909,0.212707,0.076867
2024-01-01 00:00:01.670,0.292894,0.156249,10.581882,0.182046,0.005771,0.119819
2024-01-01 00:00:01.680,0.155845,-0.069889,10.678136,0.226523,0.058133,0.123469
2024-01-01 00:00:01.690,0.080382,0.042297,10.798975,0.046715,0.051735,0.103968
2024-01-01 00:00:01.700,0.1261,0.057892,10.436986,-0.061531,0.060763,0.108019
2024-01-01 00:00:01.710,0.395585,0.116573,10.541329,0.077535,0.047797,0.076859
2024-01-01 00:00:01.720,0.330896,-0.193023,10.064539,0.13663,0.085326,0.041052
2024-01-01 00:00:01.730,0.307334,-0.014736,10.042817,0.004887,0.1265,0.03544
2024-01-01 00:00:01.740,0.238883,-0.004694,9.271369,-0.102677,0.073855,0.007956
2024-01-01 00:00:01.750,0.066481,-0.21905,9.276108,-0.019903,0.000594,-0.02997
2024-01-01 00:00:01.760,0.169276,-0.021254,9.271162,-0.104775,0.028197,-0.115497
2024-01-01 00:00:01.770,0.056764,-0.085566,8.930357,-0.163061,0.182641,0.114193
2024-01-01 00:00:01.780,0.395664,-0.250887,8.595912,-0.110711,-0.011716,-0.0342
2024-01-01 00:00:01.790,0.00484,-0.149045,9.142282,-0.118957,0.204182,-0.061081
2024-01-01 00:00:01.800,-0.051177,-0.168519,8.843385,0.013194,0.091432,-0.076862
2024-01-01 00:00:01.810,-0.117651,-0.159742,9.339291,-0.202229,0.193554,-0.09754
2024-01-01 00:00:01.820,0.145401,-0.207011,9.598995,-0.251928,0.355124,-0.102352
2024-01-01 00:00:01.830,-0.181276,-0.088455,9.725326,-0.172474,0.038888,0.07779
2024-01-01 00:00:01.840,0.061128,-0.370098,9.980073,-0.215961,-0.003371,-0.044896
2024-01-01 00:00:01.850,-0.008039,-0.193579,10.101128,-0.134174,0.080174,0.024182
2024-01-01 00:00:01.860,-0.096587,-0.073988,10.585209,-0.08307,-0.044503,0.079232
2024-01-01 00:00:01.870,0.199612,-0.082242,10.341473,-0.003121,0.00792,0.125823
2024-01-01 00:00:01.880,-0.190755,-0.126874,10.524528,0.000896,-0.045986,0.070732
2024-01-01 00:00:01.890,-0.087933,-0.158908,10.499611,-0.005492,-0.09984,0.112453
2024-01-01 00:00:01.900,-0.314778,-0.109511,10.537042,-0.166748,-0.197742,0.186592
2024-01-01 00:00:01.910,-0.27734,-0.192534,10.824438,-0.023517,-0.104906,0.091829
2024-01-01 00:00:01.920,-0.101762,0.045751,10.015761,-0.091889,-0.159425,0.017074
2024-01-01 00:00:01.930,-0.29108,0.015066,9.74672,0.048025,-0.120905,0.132028
2024-01-01 00:00:01.940,-0.204049,-0.071785,9.855171,0.09589,-0.033474,0.017839
2024-01-01 00:00:01.950,-0.114059,0.060295,9.48571,0.058182,-0.131597,-0.018405
2024-01-01 00:00:01.960,-0.178982,-0.14063,8.975411,0.223404,1.8e-05,-0.09687
2024-01-01 00:00:01.970,-0.226216,-0.043633,8.865303,0.122991,-0.206087,-0.086929
2024-01-01 00:00:01.980,-0.153409,0.203029,8.805145,0.097111,-0.073499,-0.076886
2024-01-01 00:00:01.990,-0.393334,0.243115,8.945221,0.21498,-0.225356,-0.098851
2024-01-01 00:00:02.000,-0.149431,0.045534,8.859143,0.128358,-0.132657,-0.094331
2024-01-01 00:00:02.010,0.038008,0.072683,9.320339,0.151904,-0.087615,-0.073461
2024-01-01 00:00:02.020,0.149216,0.065091,9.347389,0.091302,0.007552,-0.002812
2024-01-01 00:00:02.030,0.052375,0.107246,9.551503,0.174332,0.049671,0.04931
2024-01-01 00:00:02.040,0.01802,0.127048,9.653202,0.098825,0.012003,-0.007528
2024-01-01 00:00:02.050,0.050379,0.170725,9.775012,0.052036,-0.005199,0.040587
2024-01-01 00:00:02.060,-0.031684,0.246047,10.258622,0.216692,0.016,-0.034824
2024-01-01 00:00:02.070,0.204243,0.106833,10.061338,0.170505,0.026732,-0.075694
2024-01-01 00:00:02.080,0.223545,0.133921,10.578689,0.087774,0.077245,0.071078
2024-01-01 00:00:02.090,0.074369,-0.016065,11.082909,0.225351,0.03049,0.042189
2024-01-01 00:00:02.100,-0.026617,-0.096931,10.939208,0.094138,0.024444,0.092352
2024-01-01 00:00:02.110,0.228227,0.232531,10.704798,0.1461,0.033088,0.067826
2024-01-01 00:00:02.120,0.339674,0.124686,10.361417,0.041218,0.093041,0.078072
2024-01-01 00:00:02.130,0.142766,-0.037471,10.364182,0.116915,0.266701,0.052085
2024-01-01 00:00:02.140,0.231836,-0.014751,9.968676,-0.162484,0.092996,0.068557
2024-01-01 00:00:02.150,0.248048,-0.042064,9.387034,-0.143008,-0.001719,0.037738
2024-01-01 00:00:02.160,0.311139,0.161525,9.480248,-0.148195,0.118272,-0.072969
2024-01-01 00:00:02.170,0.243539,-0.136435,9.108106,0.015997,0.148738,-0.05083
2024-01-01 00:00:02.180,0.055583,-0.022932,8.836503,-0.174375,0.118648,-0.064932
2024-01-01 00:00:02.190,0.249733,-0.143509,8.828053,-0.076753,0.103604,-0.214834
2024-01-01 00:00:02.200,0.089924,-0.02605,8.878618,-0.196559,0.187092,-0.084214
2024-01-01 00:00:02.210,0.10389,0.077131,8.890549,-0.059191,0.05825,-0.080391
2024-01-01 00:00:02.220,0.179357,-0.080726,9.100581,-0.146916,-0.025031,-0.00573
2024-01-01 00:00:02.230,-0.177477,-0.324017,9.290603,-0.059525,0.071425,-0.102977
2024-01-01 00:00:02.240,0.116403,-0.221069,9.535779,0.013273,-0.076429,0.002479
2024-01-01 00:00:02.250,-0.147184,-0.104591,10.061909,0.0351,0.033785,0.071534
2024-01-01 00:00:02.260,-0.117978,-0.053551,10.311891,-0.06097,0.061601,-0.009026
2024-01-01 00:00:02.270,0.067556,-0.170048,10.599683,-0.181955,0.042086,0.066046
2024-01-01 00:00:02.280,0.039321,-0.209863,10.248609,-0.126834,-0.156077,0.144385
2024-01-01 00:00:02.290,-0.228222,-0.280952,10.636289,-0.038855,-0.080751,0.082771
2024-01-01 00:00:02.300,-0.275122,-0.256266,11.175094,-0.113004,-0.02691,0.043851
2024-01-01 00:00:02.310,-0.352776,0.117598,10.494705,-0.100841,-0.040961,0.050017
2024-01-01 00:00:02.320,-0.286578,-0.107817,10.503637,-0.03681,-0.186062,0.039824
2024-01-01 00:00:02.330,-0.001504,-0.100577,10.21318,-0.037444,-0.192409,0.048631
2024-01-01 00:00:02.340,-0.176844,-0.073593,10.083996,0.095268,-0.095107,-0.015359
2024-01-01 00:00:02.350,-0.318932,0.09812,9.742417,-0.153397,-0.116033,0.001371
2024-01-01 00:00:02.360,-0.211302,-0.068291,9.093521,0.131338,0.040617,-0.012921
2024-01-01 00:00:02.370,-0.346881,0.18138,9.299107,0.005111,-0.071373,-0.027395
2024-01-01 00:00:02.380,-0.184165,0.326587,9.273796,0.209577,-0.085096,-0.121892
2024-01-01 00:00:02.390,-0.072295,0.149487,8.746216,0.164546,-0.190012,-0.067359
2024-01-01 00:00:02.400,-0.304198,-0.112904,8.931383,0.01615,-0.10048,-0.154491
2024-01-01 00:00:02.410,-0.006376,0.018423,9.177458,0.100858,-0.208717,-0.058515
2024-01-01 00:00:02.420,0.106254,0.150671,9.370137,0.241811,-0.006961,0.053792
2024-01-01 00:00:02.430,0.056346,0.268698,9.52087,0.235097,-0.047831,-0.071865
2024-01-01 00:00:02.440,-0.09118,0.095916,9.482188,0.140762,0.060197,-0.026579
2024-01-01 00:00:02.450,0.118701,0.18479,10.100824,0.097104,0.05664,-0.010058
2024-01-01 00:00:02.460,-0.080789,0.247725,10.060723,0.170319,0.155685,0.071582
2024-01-01 00:00:02.470,-0.06059,0.027798,10.337908,0.193142,-0.003169,-0.006737
2024-01-01 00:00:02.480,0.35402,0.10375,10.581642,-0.020354,-0.037788,0.037612
2024-01-01 00:00:02.490,-0.03195,0.116339,10.891612,0.219769,0.120945,0.004345
2024-01-01 00:00:02.500,0.046883,-0.092805,10.733794,0.025058,0.048983,0.146202
2024-01-01 00:00:02.510,0.132523,-0.090841,10.583698,0.114615,0.12303,0.182631
2024-01-01 00:00:02.520,0.189685,0.111582,10.498613,0.076055,0.090224,0.037326
2024-01-01 00:00:02.530,0.349036,0.219231,10.193069,0.122118,0.169729,-0.014348
2024-01-01 00:00:02.540,0.292848,0.116362,9.864115,-0.119677,0.147747,-0.021981
2024-01-01 00:00:02.550,0.363165,-0.049399,9.875535,0.10194,0.173461,-0.05878
2024-01-01 00:00:02.560,0.290349,0.018708,9.561522,-0.041865,0.012968,-0.079852
2024-01-01 00:00:02.570,0.226054,-0.041695,9.000657,-0.025605,0.165329,-0.008103
2024-01-01 00:00:02.580,0.012286,-0.00636,9.039692,-0.044698,0.118862,-0.085058
2024-01-01 00:00:02.590,0.181245,-0.039646,8.762432,-0.179745,0.184296,-0.093814
2024-01-01 00:00:02.600,0.056418,-0.237109,8.599884,-0.114498,0.090538,-0.060522
2024-01-01 00:00:02.610,0.034541,-0.300921,8.816164,-0.148903,-0.041536,-0.072254
2024-01-01 00:00:02.620,0.060862,-0.064943,9.153081,-0.195656,0.076301,-0.106127
2024-01-01 00:00:02.630,0.317845,-0.045616,9.242685,-0.026308,0.001974,-0.016542
2024-01-01 00:00:02.640,0.15777,-0.198884,10.054252,-0.110491,0.082691,-0.049222
2024-01-01 00:00:02.650,0.130533,-0.17274,9.671527,0.011706,-0.039866,0.023278
2024-01-01 00:00:02.660,-0.15377,-0.097127,10.15148,-0.175934,-0.056417,0.060901
2024-01-01 00:00:02.670,-0.054248,-0.106875,10.386477,-0.11889,0.021564,0.110268
2024-01-01 00:00:02.680,-0.109477,-0.220096,10.051569,-0.088237,0.00521,0.1434
2024-01-01 00:00:02.690,-0.074877,-0.085577,11.075569,-0.234756,-0.071316,0.076475
2024-01-01 00:00:02.700,-0.034206,-0.13009,10.980311,-0.082202,-0.033405,0.12106
2024-01-01 00:00:02.710,-0.172318,-0.191245,10.486904,-0.134922,-0.104872,0.045577
2024-01-01 00:00:02.720,-0.158628,-0.105373,10.376585,-0.229162,-0.102452,0.096227
2024-01-01 00:00:02.730,-0.106405,-0.032249,10.359718,-0.041492,-0.090654,0.001407
2024-01-01 00:00:02.740,-0.146338,0.038436,10.07529,-0.045441,0.026149,-0.066433
2024-01-01 00:00:02.750,-0.102644,0.076728,9.958758,0.104664,-0.079468,0.033727
2024-01-01 00:00:02.760,-0.527574,-0.072371,9.837075,-0.102166,-0.119869,0.008232
2024-01-01 00:00:02.770,-0.312316,0.02867,9.426006,0.065484,-0.115009,-0.008455
2024-01-01 00:00:02.780,-0.203036,-0.017725,9.034387,-0.013933,-0.318508,-0.073572
2024-01-01 00:00:02.790,-0.291932,0.17103,8.861071,0.049488,-0.112453,0.000915
2024-01-01 00:00:02.800,-0.282747,0.144538,8.80877,0.115585,-0.091403,-0.065176
2024-01-01 00:00:02.810,-0.438693,0.121176,8.967814,0.168136,-0.009051,-0.06523
2024-01-01 00:00:02.820,-0.026455,0.012135,8.816987,0.223504,-0.178495,-0.067807
2024-01-01 00:00:02.830,-0.118443,0.277282,8.953729,0.232179,-0.028434,0.028879
2024-01-01 00:00:02.840,-0.160781,0.071393,9.26823,0.080776,-0.064179,-0.045246
2024-01-01 00:00:02.850,0.186878,0.069736,9.822277,0.170414,0.132716,-0.085486
2024-01-01 00:00:02.860,-0.044525,0.15735,9.762677,0.003121,0.112604,-0.122378
2024-01-01 00:00:02.870,0.145422,0.215979,9.696764,0.239518,0.046122,0.072157
2024-01-01 00:00:02.880,0.099307,0.170006,10.074001,0.093095,0.054529,-0.0485
2024-01-01 00:00:02.890,0.173724,0.059606,10.679132,0.102978,0.033521,0.072796
2024-01-01 00:00:02.900,-0.121387,0.053263,10.648726,0.075363,0.126313,0.106166
2024-01-01 00:00:02.910,0.127401,0.125636,10.990288,0.128621,-0.033718,0.132261
2024-01-01 00:00:02.920,0.112884,0.113107,10.28059,-0.018445,0.193867,0.073223
2024-01-01 00:00:02.930,0.263746,0.057217,10.626633,0.103597,0.039968,0.024847
2024-01-01 00:00:02.940,0.5264,-0.032832,10.251877,-0.026,0.049721,0.038171
2024-01-01 00:00:02.950,0.381259,-0.053783,10.178077,-0.036166,0.176797,0.027713
2024-01-01 00:00:02.960,0.354751,-0.104879,9.700317,-0.018098,0.113738,-0.052063
2024-01-01 00:00:02.970,0.019307,0.092248,9.788094,-0.022677,0.190853,-0.082807
2024-01-01 00:00:02.980,0.214542,-0.164097,9.204272,-0.116475,0.148568,-0.093326
2024-01-01 00:00:02.990,0.147631,-0.012715,9.368758,-0.142427,0.111855,-0.11789
2024-01-01 00:00:03.000,-0.01054,-0.127432,9.112623,-0.14229,0.075681,-0.085553
2024-01-01 00:00:03.010,0.178269,-0.272434,8.698274,-0.023491,0.211722,-0.007329
2024-01-01 00:00:03.020,0.236939,-0.011426,8.916895,-0.190886,0.096816,-0.078599
2024-01-01 00:00:03.030,0.129278,-0.223196,8.853832,-0.127663,0.071748,-0.143342
2024-01-01 00:00:03.040,0.171688,-0.09724,9.538505,-0.057093,0.014898,0.04455
2024-01-01 00:00:03.050,0.193194,-0.167629,9.401608,-0.18702,0.008035,-0.049493
2024-01-01 00:00:03.060,-0.044715,-0.085416,9.765543,-0.177399,0.10161,0.007698
2024-01-01 00:00:03.070,0.204595,-0.243375,10.380913,-0.115618,0.036951,0.067587
2024-01-01 00:00:03.080,-0.163024,-0.114528,10.090665,-0.220208,-0.056025,0.103159
2024-01-01 00:00:03.090,-0.115244,0.010433,10.138608,-0.156932,-0.005287,0.151554
2024-01-01 00:00:03.100,-0.121179,-0.181007,10.325134,-0.008945,-0.021381,0.042379
2024-01-01 00:00:03.110,-0.191463,0.095184,11.098135,-0.161907,-0.152233,0.091008
2024-01-01 00:00:03.120,-0.339341,-0.033317,10.967036,-0.103295,-0.19081,0.093821
2024-01-01 00:00:03.130,-0.048895,-0.320341,10.549548,-0.126041,-0.143196,0.101016
2024-01-01 00:00:03.140,0.034181,0.005711,10.03804,-0.064329,-0.109062,0.020179
2024-01-01 00:00:03.150,-0.136205,-0.077514,10.369345,-0.126601,-0.085884,0.000178
2024-01-01 00:00:03.160,-0.186134,0.079022,9.663767,0.103145,-0.121752,-0.037974
2024-01-01 00:00:03.170,-0.242782,0.14448,9.686106,0.094365,-0.061994,-0.002864
2024-01-01 00:00:03.180,-0.137422,0.085137,9.030147,0.018991,0.004643,-0.063538
2024-01-01 00:00:03.190,-0.111704,-0.05397,9.433025,-0.003195,-0.134954,-0.063234
2024-01-01 00:00:03.200,-0.188911,0.025562,8.972941,0.156628,-0.035939,-0.012785
2024-01-01 00:00:03.210,-0.220633,0.237535,9.190952,-0.003833,-0.066227,-0.139985
2024-01-01 00:00:03.220,-0.432219,0.058577,8.845512,0.048791,-0.025774,-0.0877
2024-01-01 00:00:03.230,-0.104405,0.155231,8.780534,0.193733,-0.059995,-0.039313
2024-01-01 00:00:03.240,0.095994,0.116152,9.301292,0.05984,0.140006,-0.054212
2024-01-01 00:00:03.250,-0.036122,-0.086208,9.508453,0.2599,0.031615,-0.004039
2024-01-01 00:00:03.260,-0.198068,0.031551,9.945856,0.061572,0.077455,-0.024339
2024-01-01 00:00:03.270,-0.080748,0.235605,9.821786,0.083957,0.024621,-0.005735
2024-01-01 00:00:03.280,-0.143771,0.131343,10.323383,0.007622,0.128344,0.119588
2024-01-01 00:00:03.290,-0.170926,0.249872,10.261696,0.048818,0.011859,0.036644
2024-01-01 00:00:03.300,0.285879,-0.063354,10.072986,0.056144,0.089843,0.109615
2024-01-01 00:00:03.310,0.150569,0.094394,10.252339,0.160065,0.170068,0.043807
2024-01-01 00:00:03.320,0.207048,0.25712,11.064069,0.102409,0.026541,0.113698
2024-01-01 00:00:03.330,-0.095091,0.2066,10.164523,0.001988,0.043542,0.077596
2024-01-01 00:00:03.340,0.249212,0.096537,10.5309,-0.021872,0.181348,0.077219
2024-01-01 00:00:03.350,0.277586,0.127043,10.232668,0.054249,0.004068,0.047496
2024-01-01 00:00:03.360,0.349435,0.229127,9.932505,-0.022669,0.07591,0.079399
2024-01-01 00:00:03.370,0.07386,-0.025032,9.745804,-0.10628,0.277603,0.04653
2024-01-01 00:00:03.380,0.041759,0.031699,9.439463,-0.01719,0.182541,0.029463
2024-01-01 00:00:03.390,0.339953,-0.153509,9.017191,-0.127671,-0.008669,-0.068102
2024-01-01 00:00:03.400,0.250969,-0.057703,9.029186,-0.006878,0.04918,-0.011326
2024-01-01 00:00:03.410,0.120538,-0.182005,8.998535,-0.018335,0.066504,-0.072174
2024-01-01 00:00:03.420,0.225946,-0.068954,8.737492,-0.144059,0.13626,-0.05887
2024-01-01 00:00:03.430,0.322034,-0.149663,8.785682,-0.069226,-0.072497,-0.067794
2024-01-01 00:00:03.440,0.121079,0.062053,9.033527,-0.148424,0.111792,-0.154599
2024-01-01 00:00:03.450,0.119005,-0.237485,9.175402,-0.268001,-0.012741,-0.020152
2024-01-01 00:00:03.460,0.138097,0.021071,9.31199,-0.290412,0.033566,-0.099853
2024-01-01 00:00:03.470,0.0841,-0.206665,9.497528,-0.069528,-0.051859,0.034751
2024-01-01 00:00:03.480,-0.052999,-0.15984,10.08801,-0.118236,-0.044663,0.111259
2024-01-01 00:00:03.490,-0.055531,-0.059929,10.276467,-0.137161,-0.030533,0.028548
2024-01-01 00:00:03.500,-0.320042,-0.336968,10.880606,-0.170857,-0.081921,0.109866
2024-01-01 00:00:03.510,-0.277648,0.053126,10.595908,-0.147323,-0.062145,0.077977
2024-01-01 00:00:03.520,0.169071,-0.317986,10.545921,-0.254055,-0.007968,-0.019491
2024-01-01 00:00:03.530,-0.236326,-0.005089,10.670929,-0.155616,0.028778,0.118966
2024-01-01 00:00:03.540,-0.384503,-0.055611,10.839868,-0.060173,-0.113248,0.05539
2024-01-01 00:00:03.550,-0.028361,-0.010686,10.097805,-0.009698,-0.088181,0.046033
2024-01-01 00:00:03.560,0.018359,0.056787,10.314561,0.039937,-0.195709,0.108416
2024-01-01 00:00:03.570,-0.357541,0.013903,9.970226,-0.069796,-0.243175,-0.00475
2024-01-01 00:00:03.580,-0.193714,0.098672,9.714322,0.042129,-0.004384,-0.001576
2024-01-01 00:00:03.590,-0.217236,0.122204,9.159314,0.112669,0.011543,0.062195
2024-01-01 00:00:03.600,-0.216378,0.188662,8.950639,0.182423,-0.206311,-0.156952
2024-01-01 00:00:03.610,-0.264715,0.154619,8.6763,0.21428,-0.244025,-0.030664
2024-01-01 00:00:03.620,-0.243838,0.229823,8.97955,0.137718,-0.139852,-0.118705
2024-01-01 00:00:03.630,-0.180394,0.059908,8.729357,-0.013037,-0.008517,0.004873
2024-01-01 00:00:03.640,-0.028941,0.059321,8.955046,0.066509,-0.106805,-0.087742
2024-01-01 00:00:03.650,-0.090039,0.045843,9.032541,0.078191,0.026961,-0.019061
2024-01-01 00:00:03.660,-0.009696,0.055703,9.478363,0.479751,-0.019676,0.035799
2024-01-01 00:00:03.670,0.011737,0.065334,9.798535,0.210215,-0.002437,-0.017152
2024-01-01 00:00:03.680,0.000343,0.12061,10.179472,0.195362,-0.023977,0.047505
2024-01-01 00:00:03.690,-0.024251,-0.101008,10.429766,0.083911,-0.00094,0.084463
2024-01-01 00:00:03.700,-0.020023,0.007198,10.711592,0.181134,-0.048949,0.080084
2024-01-01 00:00:03.710,0.065018,0.130063,10.547871,0.300531,0.049036,0.129421
2024-01-01 00:00:03.720,0.132257,0.180699,10.951226,0.233816,0.19584,0.089857
2024-01-01 00:00:03.730,-0.016641,0.006674,10.624872,-0.056904,0.028736,0.020504
2024-01-01 00:00:03.740,0.078501,0.00316,10.771722,0.09813,0.247944,0.002802
2024-01-01 00:00:03.750,0.303955,0.032088,10.721871,0.034488,0.019549,-0.018806
2024-01-01 00:00:03.760,0.097174,0.042688,10.445403,0.124797,0.077903,-0.043355
2024-01-01 00:00:03.770,0.214246,0.026372,9.855339,0.07016,0.214545,0.051782
2024-01-01 00:00:03.780,0.028006,-0.019607,9.424204,-0.262628,-0.020874,0.046541
2024-01-01 00:00:03.790,0.345405,0.063435,9.366267,-0.113275,0.162437,-0.007361
2024-01-01 00:00:03.800,0.346701,-0.130043,9.464014,-0.170713,0.07823,-0.055372
2024-01-01 00:00:03.810,0.201316,-0.059982,8.841575,0.048674,-0.074871,-0.069305
2024-01-01 00:00:03.820,0.167521,-0.003641,8.833082,-0.048766,0.127295,0.003611
2024-01-01 00:00:03.830,0.186645,0.051055,8.96893,-0.220289,0.064661,-0.088907
2024-01-01 00:00:03.840,0.089659,0.081429,9.142047,-0.218229,0.004916,-0.133841
2024-01-01 00:00:03.850,-0.006595,-0.109938,9.053606,-0.127909,0.097632,-0.060605
2024-01-01 00:00:03.860,0.153189,-0.258198,9.509387,-0.172441,0.051413,-0.014076
2024-01-01 00:00:03.870,-0.067964,0.149386,9.588366,-0.148339,-0.013321,0.017322
2024-01-01 00:00:03.880,0.038573,-0.449234,10.18109,-0.160424,0.016498,-0.021953
2024-01-01 00:00:03.890,0.110787,-0.06758,10.457778,-0.129742,-0.00935,0.038021
2024-01-01 00:00:03.900,-0.214865,-0.092882,10.554091,-0.155615,-0.005339,0.019617
2024-01-01 00:00:03.910,-0.116731,-0.022677,10.552297,-0.274239,-0.094458,0.074282
2024-01-01 00:00:03.920,-0.123134,-0.107398,10.699758,-0.159404,-0.12348,0.147957
2024-01-01 00:00:03.930,-0.406035,-0.04867,10.975085,-0.18063,-0.136283,0.196561
2024-01-01 00:00:03.940,-0.225662,-0.005484,10.610405,-0.094764,-0.120597,0.04462
2024-01-01 00:00:03.950,-0.17274,-0.037686,10.667512,-0.045839,-0.160627,0.046777
2024-01-01 00:00:03.960,-0.347128,-0.004779,10.153908,-0.212405,-0.177738,0.041531
2024-01-01 00:00:03.970,-0.078262,-0.033163,9.790622,-0.119684,-0.144415,-0.0185
2024-01-01 00:00:03.980,0.000353,0.072028,9.52643,-0.063069,-0.161905,-0.062813
2024-01-01 00:00:03.990,-0.019126,0.117278,9.656243,0.067398,-0.179305,0.008165
2024-01-01 00:00:04.000,0.061312,0.080916,9.050761,0.051728,-0.058807,-0.000128
2024-01-01 00:00:04.010,-0.211609,-0.092937,9.052378,-0.009544,-0.198947,-0.063944
2024-01-01 00:00:04.020,-0.017143,0.006305,8.799565,0.031647,-0.139816,-0.119173
2024-01-01 00:00:04.030,-0.098944,0.137111,8.930458,0.102397,-0.04174,-0.14222
2024-01-01 00:00:04.040,-0.264318,0.040189,9.093847,0.119182,-0.174832,-0.055291
2024-01-01 00:00:04.050,-0.203354,0.380715,8.933151,0.101478,-0.053155,-0.08676
2024-01-01 00:00:04.060,-0.109547,0.160605,9.247229,0.048058,-0.07138,-0.095359
2024-01-01 00:00:04.070,-0.245041,0.265599,9.39555,0.103754,-0.071229,-0.040523
2024-01-01 00:00:04.080,-0.003561,0.217797,9.877225,0.125997,-0.122894,-0.055918
2024-01-01 00:00:04.090,0.033625,0.174209,9.979977,0.105254,-0.136241,0.091928
2024-01-01 00:00:04.100,0.406417,0.105598,10.058212,0.319349,-0.046009,0.145441
2024-01-01 00:00:04.110,0.124986,0.136297,10.870986,0.178398,0.070054,0.080686
2024-01-01 00:00:04.120,0.281255,0.119128,10.801894,0.131084,-0.071948,0.125123
2024-01-01 00:00:04.130,0.205694,0.091774,10.829586,0.084225,-0.040222,0.099116
2024-01-01 00:00:04.140,0.076714,0.274606,10.584004,0.286839,-0.022116,0.068773
2024-01-01 00:00:04.150,0.059462,-0.104114,10.561743,0.091535,0.248017,0.050365
2024-01-01 00:00:04.160,0.119574,-0.196619,10.383957,0.150211,0.113561,0.008979
2024-01-01 00:00:04.170,0.156241,-0.094693,9.952116,0.022617,0.099877,0.109587
2024-01-01 00:00:04.180,0.339833,-0.152229,10.020552,0.043781,0.011859,-0.068973
2024-01-01 00:00:04.190,0.348702,0.057561,9.62517,0.153701,0.120013,-0.042275
2024-01-01 00:00:04.200,0.145546,-0.169506,9.524008,-0.032755,0.146973,-0.035326
2024-01-01 00:00:04.210,0.152341,-0.04971,9.210659,-0.011957,0.163856,-0.076676
2024-01-01 00:00:04.220,0.071356,-0.007506,8.988807,-0.103279,0.071669,-0.037829
2024-01-01 00:00:04.230,0.125669,-0.036849,8.543354,-0.085704,0.170105,-0.050983
2024-01-01 00:00:04.240,0.159281,0.002669,8.56624,-0.020729,0.04425,-0.028991
2024-01-01 00:00:04.250,0.034331,-0.128712,8.832529,-0.100563,0.091511,-0.00208
2024-01-01 00:00:04.260,0.090108,-0.10949,9.545723,-0.078465,0.062994,-0.052871
2024-01-01 00:00:04.270,-0.033001,-0.078806,9.332825,-0.199094,-0.052779,-0.060469
2024-01-01 00:00:04.280,0.175352,-0.247912,9.671263,-0.175241,0.050837,0.055821
2024-01-01 00:00:04.290,0.009994,-0.19147,10.350032,-0.279396,0.072856,0.058815
2024-01-01 00:00:04.300,-0.116531,-0.254345,10.196712,-0.196251,-0.037511,0.048333
2024-01-01 00:00:04.310,0.093673,-0.239059,10.505311,-0.161004,0.047288,0.053648
2024-01-01 00:00:04.320,-0.31487,-0.121204,10.73068,-0.119279,0.035802,0.022022
2024-01-01 00:00:04.330,-0.145157,0.034454,10.71522,-0.209852,-0.122481,0.140553
2024-01-01 00:00:04.340,0.034836,0.048731,10.89073,-0.269868,-0.104023,0.118234
2024-01-01 00:00:04.350,-0.020454,-0.163303,10.545536,-0.167473,-0.120921,0.057152
2024-01-01 00:00:04.360,-0.08713,0.075725,11.026085,-0.119083,-0.187509,-0.002053
2024-01-01 00:00:04.370,-0.198144,-0.242402,10.136806,0.039969,-0.151266,0.007537
2024-01-01 00:00:04.380,-0.074596,-0.0099,9.894469,-0.116131,-0.238555,-0.01478
2024-01-01 00:00:04.390,-0.110637,0.11283,9.82386,0.093504,-0.041972,-0.125846
2024-01-01 00:00:04.400,-0.063615,-0.087594,9.563994,0.141906,-0.169314,0.003165
2024-01-01 00:00:04.410,-0.30988,0.167428,8.985027,0.033321,-0.089358,-0.052139
2024-01-01 00:00:04.420,-0.037797,0.133826,9.086215,-0.017159,-0.1428,-0.204884
2024-01-01 00:00:04.430,-0.266572,0.015436,8.813433,-0.030006,-0.075053,-0.155155
2024-01-01 00:00:04.440,-0.290331,0.016786,8.900355,0.190475,-0.067344,-0.166906
2024-01-01 00:00:04.450,-0.112299,0.257561,8.896207,0.192698,-0.031402,-0.054701
2024-01-01 00:00:04.460,-0.093077,0.173363,8.94491,0.175936,0.064407,-0.018694
2024-01-01 00:00:04.470,0.09949,0.290395,9.363973,0.036348,-0.0169,-0.077383
2024-01-01 00:00:04.480,-0.051202,0.216668,9.520789,0.133102,-0.050532,0.04505
2024-01-01 00:00:04.490,0.044237,0.32516,9.747425,0.16331,-0.026728,-0.035284
2024-01-01 00:00:04.500,-0.086484,0.061932,9.917925,0.085822,-0.064739,0.118111
2024-01-01 00:00:04.510,-0.083606,0.145754,10.527553,0.190046,0.126641,0.040389
2024-01-01 00:00:04.520,0.049798,0.050451,10.624112,0.154554,-0.052603,-0.015768
2024-01-01 00:00:04.530,0.190503,0.201669,10.529937,0.163992,0.090424,0.051324
2024-01-01 00:00:04.540,0.457292,0.275379,10.825853,0.119453,0.279846,0.147446
2024-01-01 00:00:04.550,0.034949,0.018666,10.569685,0.058037,0.096018,0.048583
2024-01-01 00:00:04.560,0.397788,0.041805,10.806665,0.051208,0.083272,0.108823
2024-01-01 00:00:04.570,0.155814,0.079432,10.525619,0.096039,0.020603,0.03326
2024-01-01 00:00:04.580,0.369239,-0.142238,10.006016,0.188441,0.064854,-0.0675
2024-01-01 00:00:04.590,0.02157,0.035395,9.810508,-0.02053,0.000776,0.061765
2024-01-01 00:00:04.600,0.229532,-0.032271,9.633303,-0.023437,0.141677,-0.035975
2024-01-01 00:00:04.610,0.210156,0.055388,9.113538,-0.030408,0.1297,-0.092809
2024-01-01 00:00:04.620,0.125153,0.011038,9.042616,-0.018572,0.121679,-0.109158
2024-01-01 00:00:04.630,0.13065,-0.200507,8.989308,0.047438,0.119343,0.001329
2024-01-01 00:00:04.640,0.144129,0.054502,9.01939,-0.005892,0.018671,-0.079707
2024-01-01 00:00:04.650,0.136926,-0.03243,9.178291,0.00087,0.072135,-0.139421
2024-01-01 00:00:04.660,-0.133589,-0.025483,9.155425,-0.042535,0.168278,-0.068807
2024-01-01 00:00:04.670,-0.084624,0.128653,9.308581,-0.190446,-0.015829,-0.089327
2024-01-01 00:00:04.680,-0.069188,-0.105901,9.846975,-0.071607,0.064458,-0.145831
2024-01-01 00:00:04.690,-0.326954,-0.080292,9.527761,-0.173101,-0.054085,0.032557
2024-01-01 00:00:04.700,-0.189936,-0.051545,9.464987,-0.234339,-0.039926,0.009907
2024-01-01 00:00:04.710,0.035699,-0.140654,10.253691,-0.308391,-0.092477,-0.00216
2024-01-01 00:00:04.720,-0.045671,-0.21127,10.571763,-0.298214,-0.114775,0.068784
2024-01-01 00:00:04.730,-0.221942,-0.103591,10.389683,-0.24386,-0.121337,0.020754
2024-01-01 00:00:04.740,-0.021069,-0.148201,10.788356,-0.187804,-0.069107,0.10068
2024-01-01 00:00:04.750,-0.1562,-0.106338,10.586136,-0.104318,-0.226744,0.076682
2024-01-01 00:00:04.760,-0.286141,0.006279,10.715236,0.019829,-0.113749,0.097122
2024-01-01 00:00:04.770,-0.110986,-0.029006,10.208767,0.021765,-0.135525,0.02161
2024-01-01 00:00:04.780,-0.034429,-0.060582,10.170117,-0.058697,-0.017241,0.009603
2024-01-01 00:00:04.790,-0.242368,-0.037044,9.932995,0.036467,0.007072,-0.027968
2024-01-01 00:00:04.800,-0.110616,0.12732,9.867851,0.024334,-0.174143,-0.030744
2024-01-01 00:00:04.810,-0.159058,0.020648,9.513091,0.07742,-0.0476,-0.032641
2024-01-01 00:00:04.820,-0.145473,-0.018314,8.939047,0.050652,-0.210709,0.01173
2024-01-01 00:00:04.830,-0.321873,-0.04695,8.63965,0.259259,-0.190233,-0.115448
2024-01-01 00:00:04.840,-0.317521,0.072245,8.729925,0.122276,-0.05071,-0.085029
2024-01-01 00:00:04.850,-0.265694,0.130403,8.620116,0.210782,-0.134505,-0.071358
2024-01-01 00:00:04.860,-0.068539,0.216595,9.079694,0.163011,0.047597,-0.087572
2024-01-01 00:00:04.870,-0.087101,0.285933,9.021104,0.24634,-0.006669,-0.088253
2024-01-01 00:00:04.880,-0.072396,0.081048,9.374612,0.203918,-0.063175,-0.010578
2024-01-01 00:00:04.890,0.135949,0.252248,9.733089,0.163545,0.01569,-0.026317
2024-01-01 00:00:04.900,0.195709,0.347748,9.616625,0.236274,0.059665,-0.038363
2024-01-01 00:00:04.910,-0.185543,0.189369,9.975937,0.185065,0.258201,-0.005424
2024-01-01 00:00:04.920,-0.186684,0.0604,10.444277,0.143018,-0.034493,0.031256
2024-01-01 00:00:04.930,0.043111,0.105377,10.399677,0.196528,0.096422,0.063895
2024-01-01 00:00:04.940,0.177429,0.198628,10.678409,0.136472,0.019268,0.088221
2024-01-01 00:00:04.950,0.216819,-0.062211,10.83935,0.175686,0.090271,0.071919
2024-01-01 00:00:04.960,0.13367,0.14761,10.921931,0.214589,0.028356,0.12341
2024-01-01 00:00:04.970,-0.07506,0.069892,10.440954,0.03397,0.206451,0.034731
2024-01-01 00:00:04.980,0.419139,-0.042121,10.389084,-0.09049,0.048961,0.053936
2024-01-01 00:00:04.990,0.114612,0.163209,10.421809,0.039335,0.128881,-0.010569
2024-01-01 00:00:05.000,0.242912,-0.076546,9.621853,-0.069296,0.018145,0.010557
2024-01-01 00:00:05.010,0.199289,0.176816,9.383212,0.07481,0.079758,-0.067615
2024-01-01 00:00:05.020,0.149114,-0.037977,9.22966,-0.005431,0.05165,0.024618
2024-01-01 00:00:05.030,0.311047,-0.040944,9.00889,-0.139388,0.09258,-0.064097
2024-01-01 00:00:05.040,0.312631,-0.239452,8.937042,-0.182345,0.055927,-0.129174
2024-01-01 00:00:05.050,-0.024882,-0.231275,8.766299,-0.088482,0.143614,-0.04978
2024-01-01 00:00:05.060,-0.19395,-0.321837,9.176193,-0.185688,0.031978,-0.016222
2024-01-01 00:00:05.070,0.010615,-0.174907,9.022757,-0.130271,0.003014,-0.030734
2024-01-01 00:00:05.080,0.102916,-0.008924,9.119798,-0.245311,0.056714,0.039977
2024-01-01 00:00:05.090,0.06514,-0.211498,9.533181,0.012435,-0.077037,-0.08729
2024-01-01 00:00:05.100,0.0441,-0.121902,9.832862,-0.111494,0.072719,-0.024195
2024-01-01 00:00:05.110,0.106485,-0.070392,9.878793,-0.093748,-0.050545,-0.042829
2024-01-01 00:00:05.120,0.063449,-0.237448,10.405864,-0.0168,-0.089588,0.054753
2024-01-01 00:00:05.130,-0.141288,-0.070338,10.342463,-0.168555,0.088824,-0.007164
2024-01-01 00:00:05.140,-0.281871,-0.094277,10.600288,0.067967,0.011772,0.066384
2024-01-01 00:00:05.150,-0.230624,-0.027913,10.478729,-0.042187,-0.119628,0.034494
2024-01-01 00:00:05.160,-0.015559,-0.136297,10.553243,-0.115054,-0.198747,0.098559
2024-01-01 00:00:05.170,-0.261501,-0.026416,10.517428,-0.120043,-0.124264,0.093094
2024-01-01 00:00:05.180,-0.051142,0.027239,10.04148,0.025038,-0.078418,0.021363
2024-01-01 00:00:05.190,-0.114926,-0.06051,10.256633,-0.029808,-0.145929,0.012563
2024-01-01 00:00:05.200,0.061268,-0.006807,10.005216,0.020199,-0.183521,0.044265
2024-01-01 00:00:05.210,-0.199916,0.102115,9.903175,-0.086416,-0.204581,-0.013284
2024-01-01 00:00:05.220,-0.473123,0.087226,9.446137,0.159391,-0.069261,-0.05788
2024-01-01 00:00:05.230,0.060335,-0.032018,9.175302,-0.040737,-0.163195,-0.05653
2024-01-01 00:00:05.240,-0.163272,0.053273,8.613258,-0.033064,0.029837,0.010482
2024-01-01 00:00:05.250,-0.163505,0.098707,8.948858,0.090475,-0.165167,-0.058689
2024-01-01 00:00:05.260,0.046476,0.015654,8.727789,0.102559,-0.119851,-0.051828
2024-01-01 00:00:05.270,-0.142851,0.036529,8.801695,0.170931,-0.037701,-0.077784
2024-01-01 00:00:05.280,-0.202012,0.100006,9.000744,0.174139,-0.065474,-0.104552
2024-01-01 00:00:05.290,-0.086227,0.019475,9.682526,0.267922,0.012706,-0.105233
2024-01-01 00:00:05.300,0.05633,0.210124,9.692455,0.175483,-0.039028,-0.007315
2024-01-01 00:00:05.310,-0.029817,0.181036,10.090279,0.188842,-0.062761,0.048113
2024-01-01 00:00:05.320,0.266873,0.275372,10.303993,0.061405,0.007596,0.122497
2024-01-01 00:00:05.330,-0.039926,0.222769,10.601239,0.124159,-0.087617,0.005949
2024-01-01 00:00:05.340,0.01032,0.114288,10.727021,0.141426,0.1132,0.111383
2024-01-01 00:00:05.350,-0.036651,0.047675,10.832148,-0.004181,-0.001238,0.061987
2024-01-01 00:00:05.360,0.381587,0.004635,10.908212,0.075602,0.084421,-0.004916
2024-01-01 00:00:05.370,0.377925,-0.043121,10.935618,-0.088697,0.090138,0.088087
2024-01-01 00:00:05.380,0.147381,0.071963,10.546477,-0.018646,0.018779,0.083683
2024-01-01 00:00:05.390,0.086789,-0.002405,10.36669,-0.140341,0.121797,0.001393
2024-01-01 00:00:05.400,-0.016088,0.278801,9.977974,0.071018,0.041511,0.021686
2024-01-01 00:00:05.410,0.374218,0.084606,9.816863,0.144952,-0.030551,0.090152
2024-01-01 00:00:05.420,0.270969,-0.029728,9.503956,0.041767,0.123329,-0.022169
2024-01-01 00:00:05.430,0.264446,0.005798,8.873949,-0.070973,0.098899,0.022671
2024-01-01 00:00:05.440,0.128213,-0.288254,8.99286,-0.116428,0.184095,-0.10722
2024-01-01 00:00:05.450,0.302287,-0.024363,8.745726,-0.1169,0.04851,-0.11717
2024-01-01 00:00:05.460,0.138521,0.028078,8.554933,-0.098973,0.104164,-0.175217
2024-01-01 00:00:05.470,-0.032934,-0.050481,8.905337,-0.029802,0.131958,-0.131116
2024-01-01 00:00:05.480,-0.025503,-0.149536,9.042748,-0.098792,0.108742,-0.038306
2024-01-01 00:00:05.490,0.087442,-0.163303,9.717151,-0.21304,0.037961,-0.076206
2024-01-01 00:00:05.500,-0.140124,-0.064017,9.445704,-0.159693,-0.008238,-0.028366
2024-01-01 00:00:05.510,0.058403,-0.14015,9.799191,-0.119491,0.057086,-0.073317
2024-01-01 00:00:05.520,-0.150679,-0.329162,10.10643,-0.236746,-0.010337,0.018549
2024-01-01 00:00:05.530,-0.123528,0.022911,10.298288,-0.123188,-0.04914,0.041222
2024-01-01 00:00:05.540,-0.158904,-0.075985,10.580744,-0.064332,0.004963,0.058567
2024-01-01 00:00:05.550,-0.159872,-0.143637,10.4604,-0.179757,-0.107995,0.011544
2024-01-01 00:00:05.560,-0.080188,-0.004469,10.985958,-0.270422,-0.158044,0.07705
2024-01-01 00:00:05.570,-0.323621,-0.052131,10.810676,-0.12518,-0.051518,0.124401
2024-01-01 00:00:05.580,-0.260349,0.168039,10.727844,-0.135193,-0.045123,0.09321
2024-01-01 00:00:05.590,-0.358744,0.019487,10.214948,-0.010513,-0.145377,0.088479
2024-01-01 00:00:05.600,-0.261029,-0.229541,10.150979,0.04663,0.007033,0.018303
2024-01-01 00:00:05.610,-0.322966,-0.133768,9.636658,0.015355,-0.18678,0.001593
2024-01-01 00:00:05.620,-0.18221,0.073808,9.523018,0.023249,-0.179622,-0.012183
2024-01-01 00:00:05.630,-0.137759,-0.002681,9.282908,-0.074466,-0.071233,-0.067703
2024-01-01 00:00:05.640,0.052752,-0.050209,8.825205,-0.017375,-0.116869,-0.052751
2024-01-01 00:00:05.650,-0.222983,0.17584,8.505909,0.127167,-0.159273,-0.003954
2024-01-01 00:00:05.660,0.016175,0.145991,8.840157,0.027341,-0.070763,-0.235598
2024-01-01 00:00:05.670,-0.188788,-0.040248,9.063434,0.139641,-0.19341,-0.082021
2024-01-01 00:00:05.680,-0.178686,0.10396,8.99237,0.237417,-0.0649,-0.102169
2024-01-01 00:00:05.690,0.007225,0.194871,9.467452,0.075829,-0.067056,-0.026532
2024-01-01 00:00:05.700,0.083918,0.114251,9.820733,0.166891,0.004885,0.038923
2024-01-01 00:00:05.710,0.123682,0.124002,9.672788,0.11976,0.039539,0.049476
2024-01-01 00:00:05.720,0.084773,0.328147,9.75631,0.307169,0.104881,0.074582
2024-01-01 00:00:05.730,0.070954,0.097734,10.398721,0.281507,0.055436,0.11214
2024-01-01 00:00:05.740,0.294936,0.160578,10.385441,0.08322,0.060161,0.032247
2024-01-01 00:00:05.750,0.050328,0.024411,10.450842,0.007525,0.145557,0.079838
2024-01-01 00:00:05.760,0.029851,0.211184,10.795788,0.282925,0.018608,-0.012667
2024-01-01 00:00:05.770,0.07722,0.079211,10.992072,0.029496,-0.009953,0.020507
2024-01-01 00:00:05.780,0.015611,-0.044605,10.570581,-0.005483,0.052766,0.022849
2024-01-01 00:00:05.790,0.103359,0.259179,10.288273,0.10275,0.021441,0.071316
2024-01-01 00:00:05.800,0.386082,0.140734,10.134613,0.185776,0.026644,0.039285
2024-01-01 00:00:05.810,0.002986,-0.017797,10.015952,-0.125805,0.072595,-0.098895
2024-01-01 00:00:05.820,0.4097,-0.09695,9.879688,-0.006421,0.171781,-0.019213
2024-01-01 00:00:05.830,0.006311,-0.269313,9.452714,-0.035291,0.15727,0.015598
2024-01-01 00:00:05.840,0.312869,-0.00714,8.975928,-0.112928,0.080268,-0.140787
2024-01-01 00:00:05.850,-0.160196,-0.119384,9.047865,-0.059897,0.165698,0.006484
2024-01-01 00:00:05.860,0.362484,-0.20031,9.23268,-0.059637,0.059153,-0.122123
2024-01-01 00:00:05.870,0.046795,-0.181696,9.221948,-0.157903,0.025365,-0.039969
2024-01-01 00:00:05.880,0.129223,-0.226798,8.872546,-0.111424,0.116207,-0.1503
2024-01-01 00:00:05.890,0.068648,-0.095863,9.258352,-0.070942,-0.021167,-0.148806
2024-01-01 00:00:05.900,0.007877,-0.182934,9.310938,-0.284313,0.057844,-0.074981
2024-01-01 00:00:05.910,0.205391,-0.281409,9.480735,-0.080738,0.059082,-0.042199
2024-01-01 00:00:05.920,0.117412,-0.003456,9.71555,-0.166594,0.078987,0.049616
2024-01-01 00:00:05.930,-0.048906,-0.162477,10.487335,-0.17359,-0.027425,0.000596
2024-01-01 00:00:05.940,-0.014523,-0.079873,10.279647,-0.136738,-0.02489,0.101914
2024-01-01 00:00:05.950,0.015119,-0.174204,10.577639,-0.113415,-0.089846,-0.001401
2024-01-01 00:00:05.960,-0.161201,-0.252544,11.0008,-0.071638,-0.036322,0.06712
2024-01-01 00:00:05.970,-0.043562,-0.097436,10.532909,-0.131021,-0.112167,0.101279
2024-01-01 00:00:05.980,-0.038429,-0.132021,10.748597,-0.205339,-0.080071,-0.007266
2024-01-01 00:00:05.990,-0.25318,0.168695,10.325824,0.043121,-0.146699,0.100038
2024-01-01 00:00:06.000,-0.331351,0.128482,10.610514,-0.140229,-0.16195,-0.026303
2024-01-01 00:00:06.010,-0.157616,0.257018,10.133021,-0.051197,-0.155254,0.029346
2024-01-01 00:00:06.020,-0.307587,0.00816,9.727938,-0.092237,-0.143286,-0.004392
2024-01-01 00:00:06.030,-0.144885,-0.074921,9.550438,0.069026,-0.177246,0.006444
2024-01-01 00:00:06.040,-0.222692,-0.042436,8.993789,-0.022278,-0.078082,-0.058867
2024-01-01 00:00:06.050,-0.055043,-0.044896,8.901655,0.173447,-0.129067,-0.105093
2024-01-01 00:00:06.060,-0.050321,0.001746,8.885026,0.064032,-0.001926,-0.041357
2024-01-01 00:00:06.070,0.114131,0.023357,9.056113,0.095509,-0.218511,-0.065702
2024-01-01 00:00:06.080,0.035024,0.193545,8.951907,0.075832,-0.108174,-0.127561
2024-01-01 00:00:06.090,-0.02583,0.302006,9.140228,0.060284,-0.1018,-0.031741
2024-01-01 00:00:06.100,-0.135327,0.068195,9.152418,0.262538,0.040718,-0.017856
2024-01-01 00:00:06.110,-0.154288,0.17193,9.495252,0.163009,0.004654,-0.091879
2024-01-01 00:00:06.120,0.062866,0.005373,9.608655,0.107023,-0.116789,-0.001584
2024-01-01 00:00:06.130,0.18895,0.036792,10.220496,0.164156,0.012077,0.004199
2024-01-01 00:00:06.140,0.166959,0.292245,10.444449,-0.013457,0.0699,0.077895
2024-01-01 00:00:06.150,0.072417,0.143071,10.713851,0.221222,0.060162,-0.060734
2024-01-01 00:00:06.160,0.047591,0.245046,10.997966,0.045689,0.106374,0.115628
2024-01-01 00:00:06.170,0.278416,-0.058087,10.642343,0.041766,0.014729,0.040492
2024-01-01 00:00:06.180,0.190123,0.083754,10.473436,0.124549,0.061758,0.082234
2024-01-01 00:00:06.190,-0.039003,-0.016562,10.69605,0.051309,0.018012,-0.009042
2024-01-01 00:00:06.200,0.374499,-0.109324,10.397627,0.130417,0.066932,0.100378
2024-01-01 00:00:06.210,-0.070789,-0.038587,10.024033,0.025097,0.152907,0.073214
2024-01-01 00:00:06.220,0.10629,-0.055056,9.834219,0.068138,0.08347,0.098648
2024-01-01 00:00:06.230,0.149808,0.005798,9.476513,0.077434,0.051854,-0.082867
2024-01-01 00:00:06.240,0.265886,0.203546,9.469222,-0.087576,0.176367,-0.009367
2024-01-01 00:00:06.250,0.117298,0.19772,8.815765,-0.029784,0.085396,-0.1174
2024-01-01 00:00:06.260,0.084283,-0.077771,8.887535,-0.062897,0.130896,-0.014137
2024-01-01 00:00:06.270,0.144976,-0.125058,8.941066,-0.133761,0.083082,-0.158069
2024-01-01 00:00:06.280,0.264543,-0.254578,8.962881,-0.121527,0.084187,-0.077686
2024-01-01 00:00:06.290,0.061098,-0.099407,9.130519,-0.057425,-0.019068,-0.016129
2024-01-01 00:00:06.300,0.328018,-0.120736,9.095677,-0.24405,0.021365,-0.157245
2024-01-01 00:00:06.310,0.076738,-0.163423,9.198089,-0.131599,0.018519,-0.039629
2024-01-01 00:00:06.320,-0.04615,-0.099122,9.64617,-0.182457,-0.032368,-0.00928
2024-01-01 00:00:06.330,-0.068466,-0.168326,9.955748,-0.179878,0.006404,-0.011835
2024-01-01 00:00:06.340,-0.127552,-0.136844,10.290069,-0.168382,-0.033801,0.053558
2024-01-01 00:00:06.350,0.003459,-0.348186,10.252465,-0.148976,-0.080546,0.094938
2024-01-01 00:00:06.360,-0.138892,-0.158933,10.681141,-0.1462,-0.104896,0.118886
2024-01-01 00:00:06.370,-0.148648,-0.181677,10.625718,-0.07601,0.02234,0.129068
2024-01-01 00:00:06.380,-0.227165,0.07867,10.86014,-0.231001,-0.211476,0.07331
2024-01-01 00:00:06.390,0.049488,-0.027587,10.400908,-0.002283,-0.278256,0.000972
2024-01-01 00:00:06.400,-0.413051,-0.063768,10.365882,-0.094149,-0.117356,0.123369
2024-01-01 00:00:06.410,-0.2342,-0.011393,10.206884,-0.119936,-0.084022,0.044355
2024-01-01 00:00:06.420,-0.152254,0.153833,10.373714,0.0778,-0.139095,0.072451
2024-01-01 00:00:06.430,-0.161082,0.083193,9.770967,0.045218,-0.122286,0.016241
2024-01-01 00:00:06.440,-0.190679,0.10647,9.453881,-0.011713,0.039899,0.033095
2024-01-01 00:00:06.450,-0.095985,0.034304,8.945085,0.054081,-0.036359,-0.081473
2024-01-01 00:00:06.460,-0.14339,-0.031605,9.149248,0.169699,-0.104435,0.059593
2024-01-01 00:00:06.470,-0.180634,0.332225,8.806232,0.16348,-0.065463,-0.088989
2024-01-01 00:00:06.480,-0.260495,0.194916,9.030565,0.017539,-0.108988,-0.087518
2024-01-01 00:00:06.490,-0.070898,0.153323,8.881509,0.128463,-0.122824,0.020383
2024-01-01 00:00:06.500,-0.216201,0.223542,9.204012,0.136214,-0.178524,0.018501
2024-01-01 00:00:06.510,-0.299444,0.106043,9.22752,0.117538,-0.085659,0.038621
2024-01-01 00:00:06.520,0.090205,-0.054416,9.58503,0.224175,-0.100641,-0.077832
2024-01-01 00:00:06.530,-0.027043,0.18173,9.867248,0.147957,0.016952,0.026365
2024-01-01 00:00:06.540,-0.023317,0.176543,9.729017,0.200254,0.027683,0.07189
2024-01-01 00:00:06.550,0.041569,0.163234,10.390506,0.013837,0.108963,0.033137
2024-01-01 00:00:06.560,0.076791,0.241515,10.33011,0.153075,0.064469,0.089302
2024-01-01 00:00:06.570,0.080888,0.060275,10.797724,0.135559,-0.028381,0.034999
2024-01-01 00:00:06.580,0.120401,0.288878,10.793434,0.003076,-0.034284,0.082094
2024-01-01 00:00:06.590,0.191621,0.178102,10.213321,0.046091,0.094115,0.041939
2024-01-01 00:00:06.600,0.162653,0.176406,10.801354,0.120572,0.051304,0.080471
2024-01-01 00:00:06.610,0.254235,0.2225,10.649064,0.035704,0.09841,0.003904
2024-01-01 00:00:06.620,0.497826,0.08434,10.187094,-0.02856,0.141076,0.012742
2024-01-01 00:00:06.630,0.319882,-0.137463,9.578767,0.008243,0.113329,0.010488
2024-01-01 00:00:06.640,0.255965,0.10929,9.634621,-0.065892,0.087306,-0.091177
2024-01-01 00:00:06.650,0.204373,-0.10848,9.188866,-0.151602,0.233068,-0.071731
2024-01-01 00:00:06.660,0.22604,-0.093346,8.911641,-0.115726,-0.027843,-0.107477
2024-01-01 00:00:06.670,0.261174,-0.003772,9.01894,-0.068367,0.078705,0.01009
2024-01-01 00:00:06.680,0.199914,-0.100611,9.409843,-0.076483,0.158288,-0.075768
2024-01-01 00:00:06.690,0.265007,-0.086928,8.532405,0.017542,-0.002476,-0.102855
2024-01-01 00:00:06.700,0.227571,-0.075428,8.68356,-0.255497,0.097483,-0.066837
2024-01-01 00:00:06.710,0.045071,-0.263262,9.054849,-0.123883,0.081412,-0.06673
2024-01-01 00:00:06.720,-0.01766,-0.171886,9.173375,-0.1959,-0.031762,-0.048557
2024-01-01 00:00:06.730,0.068024,-0.158177,9.936433,-0.289825,0.049499,-0.089915
2024-01-01 00:00:06.740,0.179425,0.012744,9.678384,-0.071559,-0.129934,0.039477
2024-01-01 00:00:06.750,-0.182514,-0.204917,10.199015,-0.285002,0.099854,-0.103485
2024-01-01 00:00:06.760,-0.027269,-0.002471,10.594576,-0.066384,0.034441,0.121047
2024-01-01 00:00:06.770,-0.115131,-0.039412,10.721717,-0.047163,-0.091709,0.122007
2024-01-01 00:00:06.780,-0.151129,-0.129698,10.571843,-0.043657,-0.101706,0.125649
2024-01-01 00:00:06.790,-0.181075,-0.144345,10.888541,-0.11507,-0.053151,0.127902
2024-01-01 00:00:06.800,0.016178,-0.11663,10.222771,0.133384,-0.044269,-0.000382
2024-01-01 00:00:06.810,-0.055905,-0.132344,10.801731,-0.028985,-0.147284,0.03386
2024-01-01 00:00:06.820,-0.175615,-0.037889,10.263431,-0.076734,-0.252088,0.009935
2024-01-01 00:00:06.830,-0.260275,0.074608,9.971004,0.003874,-0.047586,0.080132
2024-01-01 00:00:06.840,-0.087284,0.080005,9.803739,0.006484,-0.1384,-0.008397
2024-01-01 00:00:06.850,-0.150492,0.020336,9.256399,0.193766,-0.136778,-0.033563
2024-01-01 00:00:06.860,-0.235725,0.069507,9.072732,0.168815,-0.188692,-0.059303
2024-01-01 00:00:06.870,-0.219516,0.138886,8.998379,-0.039697,-0.071945,-0.108766
2024-01-01 00:00:06.880,-0.12041,-0.016915,8.631724,-0.062771,-0.181027,-0.090519
2024-01-01 00:00:06.890,-0.329851,0.138248,8.963864,0.071625,-0.017436,-0.079683
2024-01-01 00:00:06.900,-0.123906,-0.018384,9.109925,0.192614,-0.089773,-0.102629
2024-01-01 00:00:06.910,-0.112478,0.113214,9.019751,0.114345,-0.254742,-0.027615
2024-01-01 00:00:06.920,-0.117657,-0.004777,9.134836,0.2478,0.033497,-0.135216
2024-01-01 00:00:06.930,0.064554,0.090077,9.458496,0.071413,0.093991,-0.054038
2024-01-01 00:00:06.940,-0.080031,0.097848,10.239117,0.127381,0.032526,-0.033698
2024-01-01 00:00:06.950,0.07015,0.116709,9.616112,0.104407,-0.098027,-0.088275
2024-01-01 00:00:06.960,0.024523,0.245184,10.298197,0.169469,0.069371,0.027642
2024-01-01 00:00:06.970,0.051815,0.089645,10.616898,0.175362,0.202959,0.100495
2024-01-01 00:00:06.980,0.065568,0.216869,10.667659,0.326037,0.142106,0.156111
2024-01-01 00:00:06.990,0.490568,0.179677,11.107874,0.149944,0.125859,0.086042
2024-01-01 00:00:07.000,0.178268,0.017378,10.778694,0.174568,0.097382,0.020792
2024-01-01 00:00:07.010,0.081365,0.072737,10.661206,0.133436,0.10251,0.054362
2024-01-01 00:00:07.020,-0.000896,0.038075,10.414558,-0.005311,0.132643,0.003518
2024-01-01 00:00:07.030,0.02078,-0.04522,10.085868,0.024697,0.180102,0.085857
2024-01-01 00:00:07.040,0.081398,-0.004351,10.271183,-0.050167,0.050522,-0.039718
2024-01-01 00:00:07.050,0.138868,-0.235249,9.428675,0.046245,0.099047,-0.131768
2024-01-01 00:00:07.060,0.165065,-0.015638,9.378487,-0.071713,0.189952,-0.047679
2024-01-01 00:00:07.070,0.303215,0.050465,9.044859,-0.020595,0.129332,-0.158509
2024-01-01 00:00:07.080,0.102745,-0.058409,8.855447,-0.222185,0.325178,-0.115246
2024-01-01 00:00:07.090,0.18547,-0.092132,8.607194,-0.006994,-0.053236,-0.114391
2024-01-01 00:00:07.100,0.113082,-0.267433,8.943289,-0.074055,0.156438,-0.069099
2024-01-01 00:00:07.110,0.163299,-0.05015,9.187208,-0.214573,0.044081,-0.036956
2024-01-01 00:00:07.120,0.122807,-0.081519,9.143947,-0.188895,-0.214368,-0.01155
2024-01-01 00:00:07.130,0.035861,-0.025986,9.665226,-0.13217,-0.034073,-0.003583
2024-01-01 00:00:07.140,-0.010759,-0.018618,9.739523,-0.139461,0.048871,-0.019622
2024-01-01 00:00:07.150,0.206929,-0.202439,9.824551,-0.04627,0.002421,0.021439
2024-01-01 00:00:07.160,-0.046239,-0.160459,10.49366,-0.142276,-0.095284,0.120827
2024-01-01 00:00:07.170,-0.225093,0.006474,10.478849,-0.157065,-0.128819,0.18645
2024-01-01 00:00:07.180,-0.184303,-0.283804,11.143673,-0.072476,-0.03743,0.053182
2024-01-01 00:00:07.190,-0.339123,-0.076254,10.756368,-0.233766,-0.111623,0.116433
2024-01-01 00:00:07.200,-0.236578,-0.180905,11.06007,0.075697,-0.210547,0.097187
2024-01-01 00:00:07.210,-0.351906,-0.152583,10.922429,-0.055659,-0.036353,0.128796
2024-01-01 00:00:07.220,-0.064959,0.029076,10.18246,-0.176217,-0.118235,0.080463
2024-01-01 00:00:07.230,0.07283,-0.037973,10.079365,0.046587,-0.12676,0.056104
2024-01-01 00:00:07.240,-0.166626,0.012091,9.967372,0.083727,-0.222638,-0.031301
2024-01-01 00:00:07.250,-0.290471,0.136466,9.507615,-0.127268,-0.087445,0.014272
2024-01-01 00:00:07.260,-0.282366,0.150086,9.355554,0.004824,-0.146719,-0.080058
2024-01-01 00:00:07.270,-0.336018,0.110015,9.010472,0.095331,-0.189668,-0.01603
2024-01-01 00:00:07.280,-0.334976,0.133395,9.007152,-0.04766,-0.12812,-0.018793
2024-01-01 00:00:07.290,-0.179135,0.191263,8.948814,0.179052,-0.066684,-0.09853
2024-01-01 00:00:07.300,-0.004322,0.02124,8.647276,0.088369,0.141686,-0.118857
2024-01-01 00:00:07.310,-0.149339,-0.014502,9.166888,0.068684,-0.012634,0.066053
2024-01-01 00:00:07.320,-0.286854,0.13674,9.275201,0.167038,-0.177453,-0.032012
2024-01-01 00:00:07.330,0.209764,0.215236,9.700593,0.463028,-0.151461,-0.076
2024-01-01 00:00:07.340,-0.241914,0.27444,9.438975,0.04405,0.0436,-0.060513
2024-01-01 00:00:07.350,0.090169,0.157868,10.25634,0.047959,0.147309,-0.056253
2024-01-01 00:00:07.360,0.277307,0.256777,10.160564,0.231219,-0.072325,0.062347
2024-01-01 00:00:07.370,0.220803,0.178035,10.684673,0.120397,-0.038025,0.090829
2024-01-01 00:00:07.380,0.198999,-0.005499,10.49933,0.107902,0.205102,0.037711
2024-01-01 00:00:07.390,-0.108357,0.148589,10.93604,0.191331,0.022243,0.04188
2024-01-01 00:00:07.400,0.249146,0.216118,11.163625,0.080095,0.093847,0.094778
2024-01-01 00:00:07.410,0.083501,0.019927,10.527955,0.137266,0.189046,0.056604
2024-01-01 00:00:07.420,0.181185,0.102848,10.249811,-0.004182,-0.04124,0.098221
2024-01-01 00:00:07.430,0.019846,-0.002368,10.437401,0.012617,0.22455,0.013374
2024-01-01 00:00:07.440,0.048883,-0.003749,9.935284,0.03156,0.090397,0.06238
2024-01-01 00:00:07.450,0.077619,-0.035282,9.448906,-0.059806,0.2748,-0.061215
2024-01-01 00:00:07.460,0.425885,-0.020961,9.464463,0.088173,0.16772,0.025899
2024-01-01 00:00:07.470,0.078348,-0.175685,9.175263,-0.086067,0.042702,-0.038008
2024-01-01 00:00:07.480,0.007932,0.020653,8.972571,-0.091898,0.166184,0.009752
2024-01-01 00:00:07.490,-0.132586,0.013313,9.074286,-0.184768,0.182328,-0.119932
2024-01-01 00:00:07.500,0.354452,-0.007045,8.824785,-0.055945,0.064868,-0.053625
2024-01-01 00:00:07.510,0.193041,-0.216253,9.264138,-0.096167,0.149244,-0.042316
2024-01-01 00:00:07.520,0.019971,-0.070242,9.019173,-0.09034,0.062439,0.009074
2024-01-01 00:00:07.530,-0.237814,-0.045316,9.549591,-0.090183,0.111645,-0.018201
2024-01-01 00:00:07.540,-0.103481,-0.105332,9.64178,-0.155693,-0.11829,-0.036515
2024-01-01 00:00:07.550,-0.099882,-0.228543,9.601262,-0.175855,-0.024574,0.010121
2024-01-01 00:00:07.560,0.210309,-0.197901,9.914658,-0.12906,-0.078975,-0.055855
2024-01-01 00:00:07.570,-0.171735,-0.000469,10.497808,-0.041071,0.032356,-0.021733
2024-01-01 00:00:07.580,-0.014105,-0.14443,10.715369,-0.040119,0.070666,-0.021999
2024-01-01 00:00:07.590,-0.326274,-0.191291,10.606803,-0.22459,-0.154829,0.033366
2024-01-01 00:00:07.600,-0.18507,-0.182859,10.868852,-0.043155,0.02254,0.015626
2024-01-01 00:00:07.610,-0.039491,-0.149649,10.761761,-0.061652,-0.088359,0.025569
2024-01-01 00:00:07.620,-0.253208,-0.010091,10.709816,-0.07556,-0.210082,0.067844
2024-01-01 00:00:07.630,-0.36126,-0.247152,10.417044,0.011569,-0.085552,-0.0346
2024-01-01 00:00:07.640,-0.106409,-0.161922,9.992976,0.011109,0.016869,0.082121
2024-01-01 00:00:07.650,-0.129028,-0.155639,9.952294,0.027279,-0.196097,-0.023027
2024-01-01 00:00:07.660,-0.161939,0.089526,9.921809,-0.037752,-0.023781,0.024021
2024-01-01 00:00:07.670,-0.055752,-0.059893,9.351502,-0.140134,-0.203991,-0.018268
2024-01-01 00:00:07.680,-0.236387,-0.121151,9.153045,0.227352,-0.054395,-0.060923
2024-01-01 00:00:07.690,-0.118717,0.06254,8.705353,0.043806,-0.16327,-0.117042
2024-01-01 00:00:07.700,-0.279715,0.137216,8.713292,0.083133,-0.062237,-0.04924
2024-01-01 00:00:07.710,-0.153454,0.05483,8.804864,0.297986,-0.09689,-0.067911
2024-01-01 00:00:07.720,-0.087854,0.073358,9.136677,-0.01713,-0.079394,-0.029938
2024-01-01 00:00:07.730,-0.329022,0.263146,9.571921,0.204859,-0.137309,-0.028379
2024-01-01 00:00:07.740,-0.110651,0.292995,9.767422,0.179666,-0.059886,-0.007624
2024-01-01 00:00:07.750,0.077035,0.181815,9.947327,0.084348,-0.120762,0.017622
2024-01-01 00:00:07.760,-0.168689,0.102372,10.083821,0.101776,0.12537,0.053286
2024-01-01 00:00:07.770,-0.032511,0.207836,10.013762,0.065581,0.04662,0.062843
2024-01-01 00:00:07.780,0.095221,0.148684,10.446078,0.011892,-0.015665,0.088582
2024-01-01 00:00:07.790,0.473629,0.121099,10.42101,0.133568,0.132415,0.075538
2024-01-01 00:00:07.800,0.251303,0.22175,11.034873,0.129621,0.036781,0.10545
2024-01-01 00:00:07.810,0.089219,-0.043382,10.414408,0.200939,-0.119494,0.063988
2024-01-01 00:00:07.820,-0.01625,0.08822,10.612036,0.104229,-0.026475,0.041094
2024-01-01 00:00:07.830,0.142659,0.066157,10.77525,0.199817,0.113737,-0.009823
2024-01-01 00:00:07.840,0.19889,0.28573,10.390297,0.041501,0.227311,0.00798
2024-01-01 00:00:07.850,0.331277,-0.041152,9.736686,0.087162,0.103015,-0.030616
2024-01-01 00:00:07.860,0.135469,0.065614,9.621375,0.051405,0.119144,-0.022335
2024-01-01 00:00:07.870,0.295362,-0.016135,9.78348,0.091108,0.152428,-0.025413
2024-01-01 00:00:07.880,0.317876,-0.06725,9.2636,-0.086031,0.005909,-0.050993
2024-01-01 00:00:07.890,0.142205,-0.05954,9.007024,-0.117051,0.111104,-0.131912
2024-01-01 00:00:07.900,0.24686,0.081049,9.174625,-0.195062,0.143615,-0.103564
2024-01-01 00:00:07.910,0.08727,-0.088427,9.017267,-0.159281,0.063416,-0.115226
2024-01-01 00:00:07.920,0.109987,-0.231187,9.052728,-0.121553,0.086272,-0.078425
2024-01-01 00:00:07.930,-0.10298,-0.224054,8.829358,-0.03665,0.064477,-0.06031
2024-01-01 00:00:07.940,0.055904,-0.01105,9.379938,-0.166177,0.03034,0.005728
2024-01-01 00:00:07.950,0.12333,-0.15169,9.715058,-0.160908,-0.022159,0.002834
2024-01-01 00:00:07.960,0.059215,-0.066041,9.963901,-0.223649,0.00553,-0.077929
2024-01-01 00:00:07.970,-0.070203,-0.239106,10.277333,-0.28004,-0.149143,0.041903
2024-01-01 00:00:07.980,0.050587,-0.178871,10.618711,-0.130252,-0.044017,0.070736
2024-01-01 00:00:07.990,-0.169475,-0.289889,10.402212,-0.028721,0.066915,0.071372
2024-01-01 00:00:08.000,-0.151794,0.023131,10.770466,-0.174139,0.06926,0.123903
2024-01-01 00:00:08.010,-0.310538,-0.23651,10.668812,0.084423,-0.012588,0.130683
2024-01-01 00:00:08.020,-0.083994,-0.020392,10.938472,-0.001335,-0.115871,0.108705
2024-01-01 00:00:08.030,-0.232778,-0.142972,10.549513,-0.046998,-0.040363,0.037313
2024-01-01 00:00:08.040,-0.163747,-0.027749,10.600929,0.082202,-0.024361,0.017992
2024-01-01 00:00:08.050,-0.175058,0.001467,9.622307,-0.082963,-0.113357,-0.008411
2024-01-01 00:00:08.060,-0.20051,-0.04076,9.972153,0.066765,-0.238272,0.015889
2024-01-01 00:00:08.070,-0.159852,-0.016234,9.907519,-0.014935,-0.032657,0.056221
2024-01-01 00:00:08.080,-0.099161,0.002327,9.22713,-0.000686,-0.044169,-0.018243
2024-01-01 00:00:08.090,-0.187436,0.160614,9.246212,0.10083,-0.014979,0.00221
2024-01-01 00:00:08.100,-0.093995,0.23756,9.101681,-0.00952,-0.109936,-0.096796
2024-01-01 00:00:08.110,-0.119484,-0.104736,8.948048,0.207448,-0.113501,-0.089689
2024-01-01 00:00:08.120,-0.046861,0.109302,8.640947,0.190075,-0.179753,-0.058452
2024-01-01 00:00:08.130,-0.119963,0.071003,8.831279,0.111854,-0.148727,-0.013981
2024-01-01 00:00:08.140,0.062705,0.191157,9.393904,0.190675,-0.136376,-0.039892
2024-01-01 00:00:08.150,0.043177,0.198777,9.505235,0.224206,0.091173,-0.008842
2024-01-01 00:00:08.160,-0.102902,0.178227,9.645148,0.123532,-0.094061,0.055929
2024-01-01 00:00:08.170,0.009523,0.277132,9.981206,0.184531,0.044444,-0.036372
2024-01-01 00:00:08.180,-0.030731,0.075203,10.210747,0.175182,0.070954,0.121117
2024-01-01 00:00:08.190,-0.127258,0.113553,10.495468,0.151955,0.022979,0.030705
2024-01-01 00:00:08.200,0.08871,0.332152,11.037993,0.200501,0.176429,-0.017424
2024-01-01 00:00:08.210,0.297623,0.011404,10.931079,0.024407,0.143733,0.073051
2024-01-01 00:00:08.220,0.240566,0.271182,10.583426,0.147892,0.017484,0.138458
2024-01-01 00:00:08.230,0.174319,0.176997,10.432608,0.1415,0.140692,0.121246
2024-01-01 00:00:08.240,0.239625,-0.041027,10.477439,-0.08433,0.076782,-0.041234
2024-01-01 00:00:08.250,0.275765,0.005744,10.28787,0.094975,0.106815,0.063031
2024-01-01 00:00:08.260,0.346661,0.035503,9.798828,0.013685,0.002344,0.069679
2024-01-01 00:00:08.270,0.299753,-0.011609,9.601626,0.085705,0.110013,-0.032853
2024-01-01 00:00:08.280,0.4488,0.080022,9.579215,0.038723,0.200271,-0.070707
2024-01-01 00:00:08.290,0.321512,-0.066613,9.284744,-0.101184,0.195658,-0.077848
2024-01-01 00:00:08.300,-0.041012,-0.175564,8.627817,0.050664,-0.008828,-0.085879
2024-01-01 00:00:08.310,0.165029,-0.039301,8.830002,-0.022366,0.096735,-0.108545
2024-01-01 00:00:08.320,0.251517,-0.269765,8.737872,-0.053812,0.054291,-0.052123
2024-01-01 00:00:08.330,0.077441,-0.394285,9.140279,-0.232288,0.154539,-0.062621
2024-01-01 00:00:08.340,-0.113383,-0.133663,9.101659,-0.067935,-0.018678,-0.123097
2024-01-01 00:00:08.350,0.050501,-0.222208,9.237731,-0.071123,0.042136,-0.02177
2024-01-01 00:00:08.360,-0.059326,-0.088146,9.855274,-0.09777,-0.01259,0.085714
2024-01-01 00:00:08.370,-0.284466,-0.203152,10.101736,-0.040762,-0.200832,-0.032214
2024-01-01 00:00:08.380,-0.062166,-0.229453,10.285631,-0.172237,0.055177,-0.039369
2024-01-01 00:00:08.390,0.053623,-0.261838,10.902252,-0.161496,-0.078375,-0.010111
2024-01-01 00:00:08.400,-0.017961,-0.104853,10.868592,-0.055478,0.037436,0.098356
2024-01-01 00:00:08.410,-0.043906,-0.063189,10.800681,-0.072016,-0.121376,0.03317
2024-01-01 00:00:08.420,-0.130056,-0.187924,10.802575,-0.084166,-0.148852,0.157095
2024-01-01 00:00:08.430,-0.296602,-0.176349,10.389299,-0.019628,-0.087906,0.0355
2024-01-01 00:00:08.440,-0.035165,-0.010809,10.284596,-0.026432,-0.105777,0.044469
2024-01-01 00:00:08.450,-0.22037,0.02297,10.38828,0.037762,-0.25322,0.007361
2024-01-01 00:00:08.460,-0.271577,-0.128257,9.956353,-0.002265,-0.041688,-0.045867
2024-01-01 00:00:08.470,-0.177371,0.131842,9.872282,0.025458,-0.240305,-0.133628
2024-01-01 00:00:08.480,0.012831,0.056077,9.111071,0.142402,-0.213371,-0.098744
2024-01-01 00:00:08.490,-0.125549,0.034991,9.183257,-0.039457,-0.179322,-0.110794
2024-01-01 00:00:08.500,-0.131226,0.120412,9.082481,0.032005,-0.091889,-0.126568
2024-01-01 00:00:08.510,-0.265637,-0.004915,8.864868,0.084118,-0.176898,-0.073253
2024-01-01 00:00:08.520,0.099213,0.199054,9.224769,0.111429,0.034875,-0.093801
2024-01-01 00:00:08.530,-0.002922,0.292695,8.744904,0.074972,-0.157904,0.0023
2024-01-01 00:00:08.540,0.112268,0.002091,9.192072,0.120307,0.012095,0.040419
2024-01-01 00:00:08.550,0.165796,0.039192,9.372177,0.017971,0.033038,-0.049466
2024-01-01 00:00:08.560,-0.168506,0.156677,9.382339,0.298461,-0.028002,-0.028222
2024-01-01 00:00:08.570,0.112175,-0.035641,9.845456,0.159751,0.015336,0.077152
2024-01-01 00:00:08.580,0.13101,0.118264,9.877402,0.054002,0.120973,0.021939
2024-01-01 00:00:08.590,-0.152205,0.078258,10.37179,0.115109,0.037157,0.032894
2024-01-01 00:00:08.600,0.136837,0.208936,10.280167,0.097406,0.124059,0.011167
2024-01-01 00:00:08.610,0.064759,0.335612,10.954026,0.162433,0.089701,0.116115
2024-01-01 00:00:08.620,-0.096479,0.276262,10.779093,0.054692,-0.053695,0.157372
2024-01-01 00:00:08.630,0.25818,0.026609,10.421293,0.244012,0.020412,0.083577
2024-01-01 00:00:08.640,0.154632,-0.074081,10.578568,-0.00574,0.169455,-0.014076
2024-01-01 00:00:08.650,0.183129,0.191926,10.248999,0.033851,0.069639,0.046784
2024-01-01 00:00:08.660,0.288555,0.006682,10.102732,0.051879,0.03107,0.16447
2024-01-01 00:00:08.670,0.209872,-0.066453,9.63364,0.0225,0.082283,0.051116
2024-01-01 00:00:08.680,0.252103,-0.14589,9.697866,0.091037,0.11331,0.040073
2024-01-01 00:00:08.690,0.041208,-0.13392,9.415822,-0.076009,0.18966,-0.038582
2024-01-01 00:00:08.700,0.274985,-0.053135,9.058586,0.020087,0.121116,-0.067644
2024-01-01 00:00:08.710,0.120985,-0.053529,9.053423,0.027344,0.123097,-0.016584
2024-01-01 00:00:08.720,0.021861,-0.040226,8.845247,-0.109977,0.108283,-0.107402
2024-01-01 00:00:08.730,0.078521,-0.066172,8.734362,-0.14829,0.105374,-0.167894
2024-01-01 00:00:08.740,0.186766,-0.010552,9.140242,-0.12648,0.075631,-0.078519
2024-01-01 00:00:08.750,-0.107251,-0.081523,9.3667,-0.187764,0.052754,-0.026373
2024-01-01 00:00:08.760,0.120685,-0.201331,9.712909,-0.210962,-0.081487,-0.139842
2024-01-01 00:00:08.770,-0.037731,-0.091927,9.803008,-0.197366,-0.024957,0.089612
2024-01-01 00:00:08.780,0.20219,-0.057959,10.083767,-0.179458,0.025023,-0.034585
2024-01-01 00:00:08.790,0.034499,-0.301018,10.221642,-0.208048,0.063827,0.074706
2024-01-01 00:00:08.800,-0.042471,-0.057021,10.471465,-0.175,-0.092117,0.0616
2024-01-01 00:00:08.810,-0.010535,-0.096232,10.480695,-0.199822,-0.038555,-0.019977
2024-01-01 00:00:08.820,-0.19595,-0.16063,10.729238,-0.169315,-0.136177,0.077812
2024-01-01 00:00:08.830,-0.09728,-0.126188,11.076507,-0.081971,-0.209232,0.134659
2024-01-01 00:00:08.840,-0.195522,-0.074728,10.385255,-0.156985,-0.094659,0.034145
2024-01-01 00:00:08.850,-0.252426,-0.017148,10.334927,-0.145458,-0.159654,0.076885
2024-01-01 00:00:08.860,-0.163967,0.037388,10.405329,0.019411,-0.159396,0.050317
2024-01-01 00:00:08.870,-0.214407,-0.073015,10.013339,0.042281,-0.033619,-0.045892
2024-01-01 00:00:08.880,-0.036881,0.131935,9.587837,-0.005284,-0.242772,-0.044086
2024-01-01 00:00:08.890,-0.15671,0.099592,9.369995,0.060592,-0.123669,-0.027356
2024-01-01 00:00:08.900,-0.143459,0.060596,9.316704,0.049862,-0.149392,-0.079681
2024-01-01 00:00:08.910,-0.191242,0.103802,8.993813,0.0858,-0.105766,-0.117256
2024-01-01 00:00:08.920,0.002083,-0.008914,9.135402,-0.055065,-0.069809,-0.064899
2024-01-01 00:00:08.930,-0.355568,0.21587,9.163482,0.078257,-0.112323,-0.067646
2024-01-01 00:00:08.940,-0.329772,0.251653,9.207297,0.092812,-0.084251,-0.010884
2024-01-01 00:00:08.950,-0.221782,0.03515,9.023309,0.19428,-0.148518,-0.006294
2024-01-01 00:00:08.960,-0.04826,0.213578,9.757016,-0.041205,-0.14582,0.081748
2024-01-01 00:00:08.970,-0.258479,0.28202,9.669802,0.091939,-0.065349,-0.07684
2024-01-01 00:00:08.980,-0.117134,0.044065,10.177981,0.022962,-0.037579,0.054481
2024-01-01 00:00:08.990,0.123267,0.099386,10.452769,0.317526,0.149236,-0.008581
2024-01-01 00:00:09.000,0.134953,0.19045,10.52174,0.028814,0.139089,0.047034
2024-01-01 00:00:09.010,-0.078009,0.234087,10.559821,0.292829,0.091497,0.002904
2024-01-01 00:00:09.020,0.208165,-0.104716,10.6724,0.128558,0.069391,0.076541
2024-01-01 00:00:09.030,0.332573,0.084985,10.970821,0.210895,0.059646,0.123973
2024-01-01 00:00:09.040,0.424402,0.042556,10.747536,0.045996,0.071291,0.061315
2024-01-01 00:00:09.050,0.2022,-0.053199,10.846151,0.188177,0.090632,0.096601
2024-01-01 00:00:09.060,0.227438,0.108531,10.225637,0.051256,0.138639,0.083074
2024-01-01 00:00:09.070,0.186224,-0.008365,10.423357,0.025212,0.123537,0.029326
2024-01-01 00:00:09.080,0.40436,-0.283955,9.627014,-0.009581,0.057959,0.011265
2024-01-01 00:00:09.090,0.26053,-0.000751,9.759125,0.019084,0.05465,-0.063899
2024-01-01 00:00:09.100,0.076401,0.034971,9.488843,-0.035015,0.099943,-0.116506
2024-01-01 00:00:09.110,0.278736,-0.10908,8.785294,-0.117781,0.184458,-0.040108
2024-01-01 00:00:09.120,0.087087,-0.149047,8.937731,-0.185302,0.220742,-0.075343
2024-01-01 00:00:09.130,0.212265,-0.182742,8.403193,-0.099213,0.061665,-0.160699
2024-01-01 00:00:09.140,-0.036103,-0.112119,8.768339,-0.186583,0.120456,-0.101109
2024-01-01 00:00:09.150,0.07717,-0.23722,9.206633,-0.158976,0.054879,-0.051485
2024-01-01 00:00:09.160,0.355975,-0.064272,9.474569,-0.111263,0.145606,-0.077634
2024-01-01 00:00:09.170,-0.111094,-0.151363,9.447151,-0.083364,0.108261,-0.011593
2024-01-01 00:00:09.180,0.030455,-0.181308,9.578106,-0.032335,-0.076676,-0.041796
2024-01-01 00:00:09.190,0.111603,-0.256638,10.167989,-0.124488,0.058616,-0.028026
2024-01-01 00:00:09.200,-0.086796,-0.199528,10.730345,-0.247534,0.000753,0.104909
2024-01-01 00:00:09.210,0.042467,-0.415045,10.247669,-0.235189,0.01598,0.083081
2024-01-01 00:00:09.220,-0.057018,-0.086393,10.847623,-0.03361,-0.028744,-0.004267
2024-01-01 00:00:09.230,-0.211401,-0.040452,10.946321,0.072556,0.029423,0.147354
2024-01-01 00:00:09.240,-0.253231,-0.151933,10.681424,-0.03927,-0.0275,0.067431
2024-01-01 00:00:09.250,-0.150805,0.114891,10.748899,-0.099053,-0.113803,-0.022885
2024-01-01 00:00:09.260,-0.403107,-0.041831,10.186448,-0.184155,-0.160806,0.01483
2024-01-01 00:00:09.270,-0.350126,0.010452,10.234459,-0.050303,-0.222802,0.010076
2024-01-01 00:00:09.280,-0.17609,-0.107965,9.601512,0.029515,-0.039871,-0.046261
2024-01-01 00:00:09.290,-0.345249,-0.058438,9.50609,0.066623,-0.052019,-0.079732
2024-01-01 00:00:09.300,-0.223041,0.018669,9.21334,-0.154386,-0.228364,-0.028362
2024-01-01 00:00:09.310,-0.328637,0.231476,9.090462,0.135355,-0.040708,-0.042158
2024-01-01 00:00:09.320,-0.01742,0.048996,9.073237,0.112386,-0.074777,-0.050328
2024-01-01 00:00:09.330,-0.040774,0.056139,9.02466,0.187123,-0.184939,-0.074649
2024-01-01 00:00:09.340,-0.072625,0.137858,8.835414,0.111404,-0.103094,-0.119157
2024-01-01 00:00:09.350,-0.078762,0.224414,8.847679,0.054023,-0.016617,-0.16365
2024-01-01 00:00:09.360,-0.138237,0.13776,9.082215,0.206156,-0.026346,0.005239
2024-01-01 00:00:09.370,-0.183958,0.068605,9.438414,0.093651,-0.069144,-0.070274
2024-01-01 00:00:09.380,0.241248,0.152267,9.87747,0.175593,-0.033031,-0.015614
2024-01-01 00:00:09.390,0.09082,0.100006,10.402229,0.171908,0.073834,0.01583
2024-01-01 00:00:09.400,0.027426,0.141141,10.103668,0.096575,-0.035262,0.055911
2024-01-01 00:00:09.410,0.129812,0.19663,10.606934,0.253662,-0.017569,0.013371
2024-01-01 00:00:09.420,0.218995,0.134227,10.49277,0.029509,0.216779,-0.006992
2024-01-01 00:00:09.430,0.286347,0.192817,11.165035,0.095733,0.009429,0.096571
2024-01-01 00:00:09.440,0.353491,0.148252,10.802596,0.072421,0.206331,0.095631
2024-01-01 00:00:09.450,0.258285,0.05514,10.644191,0.070661,0.038375,0.13282
2024-01-01 00:00:09.460,0.08456,0.013595,10.534783,-0.090892,-0.024781,0.085776
2024-01-01 00:00:09.470,0.203297,0.148605,9.890951,-0.092543,0.03717,0.070878
2024-01-01 00:00:09.480,0.260124,0.174094,9.968616,-0.073028,0.091659,0.048807
2024-01-01 00:00:09.490,0.190023,-0.09765,10.014961,0.101429,0.044912,0.042481
2024-01-01 00:00:09.500,0.20605,-0.037313,9.385386,-0.068203,0.18501,-0.060814
2024-01-01 00:00:09.510,-0.184465,-0.044751,9.471677,-0.091567,0.022334,0.014825
2024-01-01 00:00:09.520,0.376284,-0.257286,9.228198,0.010169,-0.033273,-0.045496
2024-01-01 00:00:09.530,0.137852,-0.094029,9.03379,0.046,0.053053,-0.116557
2024-01-01 00:00:09.540,0.343525,-0.111058,8.979748,-0.116755,-0.000618,-0.069252
2024-01-01 00:00:09.550,0.226174,-0.015312,8.729739,-0.15063,0.215349,-0.124492
2024-01-01 00:00:09.560,0.135018,-0.058942,9.301293,-0.04562,0.16206,0.006697
2024-01-01 00:00:09.570,0.302404,-0.014778,9.14435,0.020943,0.108199,-0.050605
2024-01-01 00:00:09.580,-0.05675,-0.122018,9.910335,-0.155605,0.065474,-0.003034
2024-01-01 00:00:09.590,0.329144,-0.023424,9.964428,-0.235512,0.055783,0.079683
2024-01-01 00:00:09.600,-0.023205,-0.28556,10.19416,-0.209483,-0.089518,0.020281
2024-01-01 00:00:09.610,-0.288187,-0.111411,10.353431,-0.1336,-0.052025,0.043404
2024-01-01 00:00:09.620,-0.178084,-0.17454,10.103293,-0.118895,-0.066667,0.033875
2024-01-01 00:00:09.630,-0.104258,-0.26568,10.734215,-0.127489,0.10429,0.10604
2024-01-01 00:00:09.640,-0.362001,-0.054613,11.045803,-0.167337,0.055415,0.135359
2024-01-01 00:00:09.650,-0.178802,-0.127218,10.947477,-0.228454,-0.258484,0.060837
2024-01-01 00:00:09.660,-0.233871,-0.077724,10.695232,-0.098129,-0.08255,0.124069
2024-01-01 00:00:09.670,-0.276254,-0.156492,10.888529,-0.107969,-0.073219,0.098923
2024-01-01 00:00:09.680,-0.2646,-0.15533,10.327754,0.024623,-0.036846,0.027544
2024-01-01 00:00:09.690,-0.295559,0.219039,10.079545,-0.04859,-0.026051,-0.080303
2024-01-01 00:00:09.700,-0.17366,0.039532,9.513936,0.108039,-0.074029,-0.149673
2024-01-01 00:00:09.710,-0.157202,-0.033226,9.404009,0.03376,-0.097867,-0.076971
2024-01-01 00:00:09.720,-0.196345,-0.101279,9.326244,0.095393,-0.195698,-0.039517
2024-01-01 00:00:09.730,-0.156607,0.035534,8.900833,0.07437,-0.003668,-0.019356
2024-01-01 00:00:09.740,-0.107884,0.068322,8.710601,0.044144,-0.094674,-0.112947
2024-01-01 00:00:09.750,-0.053739,-0.015941,8.813131,0.152324,-0.086824,-0.074074
2024-01-01 00:00:09.760,-0.069028,0.13431,8.807329,0.182366,-0.052109,-0.077535
2024-01-01 00:00:09.770,0.156715,0.088512,9.167208,0.224085,-0.112715,-0.162164
2024-01-01 00:00:09.780,0.167752,0.209925,9.196668,0.22216,-0.000316,0.000566
2024-01-01 00:00:09.790,-0.134106,0.129407,9.643456,0.149458,0.046011,0.000551
2024-01-01 00:00:09.800,-0.105255,0.179587,9.725329,0.051375,-0.023709,0.061681
2024-01-01 00:00:09.810,-0.071407,0.189126,10.26673,0.141526,0.057189,0.053157
2024-01-01 00:00:09.820,0.174963,0.137323,10.647983,0.113922,-0.013591,0.001523
2024-01-01 00:00:09.830,0.036728,0.126497,10.297023,0.17665,0.14981,0.076192
2024-01-01 00:00:09.840,0.276072,0.287823,10.878243,0.164905,0.142874,0.125483
2024-01-01 00:00:09.850,0.043186,0.16984,10.661899,0.006675,0.058803,0.141862
2024-01-01 00:00:09.860,-0.000679,0.248814,10.575328,0.195529,0.031883,0.024418
2024-01-01 00:00:09.870,-0.022571,-0.038163,10.124866,0.098167,0.05212,0.056361
2024-01-01 00:00:09.880,-0.005407,-0.087304,10.416611,-0.000636,0.071987,0.034643
2024-01-01 00:00:09.890,0.149301,0.047472,9.994604,-0.016477,0.249941,0.085154
2024-01-01 00:00:09.900,0.446164,-0.011623,9.468588,-0.043889,0.041825,0.022702
2024-01-01 00:00:09.910,0.281166,-0.125276,9.594349,-0.107863,0.04809,-0.016025
2024-01-01 00:00:09.920,0.200296,-0.165476,8.561651,-0.064785,0.05062,-0.062162
2024-01-01 00:00:09.930,0.085196,-0.008547,9.37087,-0.033624,0.093674,0.007383
2024-01-01 00:00:09.940,0.112689,-0.051729,8.994417,-0.132511,0.10802,-0.093565
2024-01-01 00:00:09.950,0.03724,-0.261105,8.187692,-0.11658,0.188627,-0.015028
2024-01-01 00:00:09.960,0.058541,0.026341,9.005887,-0.122556,-0.01742,-0.130532
2024-01-01 00:00:09.970,0.103657,-0.019376,9.307945,-0.073291,0.090689,-0.00179
2024-01-01 00:00:09.980,0.128293,-0.095092,9.611032,-0.064231,0.046094,-0.066233
2024-01-01 00:00:09.990,-0.022837,-0.223342,9.533603,-0.138711,-0.044105,-0.057758
2024-01-01 00:00:10.000,0.067934,-0.355133,10.358994,-0.08646,-0.066056,0.010349
2024-01-01 00:00:10.010,-0.04975,-0.001793,10.361132,-0.273722,0.067136,0.069424
2024-01-01 00:00:10.020,-0.116473,0.029733,10.599519,-0.093448,-0.061648,0.060833
2024-01-01 00:00:10.030,-0.0457,-0.18892,10.529088,-0.22565,-0.205716,0.005707
2024-01-01 00:00:10.040,-0.184858,-0.023438,10.508396,-0.112242,-0.042981,0.14745
2024-01-01 00:00:10.050,-0.136397,-0.048563,10.755848,-0.091784,0.019247,0.081353
2024-01-01 00:00:10.060,-0.167989,0.013016,10.637666,-0.051291,-0.072426,0.038799
2024-01-01 00:00:10.070,-0.054916,-0.026688,10.439921,0.015945,-0.084942,0.08879
2024-01-01 00:00:10.080,-0.201347,-0.014988,10.411341,-0.045047,-0.141815,0.020456
2024-01-01 00:00:10.090,-0.155496,-0.036599,9.717262,-0.113166,-0.165165,0.070403
2024-01-01 00:00:10.100,-0.322956,-0.039792,9.893824,-0.034163,-0.058061,-0.054629
2024-01-01 00:00:10.110,-0.224195,-0.117035,9.456512,0.058443,-0.084269,-0.098653
2024-01-01 00:00:10.120,-0.03275,-0.171458,9.417993,-0.016449,-0.144332,-0.021769
2024-01-01 00:00:10.130,-0.014116,0.207008,9.319462,0.219681,-0.069457,-0.06968
2024-01-01 00:00:10.140,-0.078807,0.194538,8.706904,0.19246,-0.172898,-0.069063
2024-01-01 00:00:10.150,-0.205422,0.232335,8.681858,0.088242,0.003993,-0.102276
2024-01-01 00:00:10.160,-0.213809,0.039782,8.987251,0.156863,-0.022398,-0.047495
2024-01-01 00:00:10.170,-0.189915,0.014502,8.827608,0.111569,-0.125753,-0.164047
2024-01-01 00:00:10.180,-0.129037,0.145189,9.187845,0.296321,0.173234,0.000237
2024-01-01 00:00:10.190,0.011503,0.205383,9.578499,-0.003944,-0.021585,-0.033758
2024-01-01 00:00:10.200,-0.088256,-0.021979,10.198345,0.232425,-0.022631,-0.026382
2024-01-01 00:00:10.210,-0.094776,-0.054943,10.026846,0.046925,0.001472,0.022432
2024-01-01 00:00:10.220,-0.08357,0.13554,10.397593,0.157209,0.06473,-0.054295
2024-01-01 00:00:10.230,-5.5e-05,0.078516,10.632658,0.223914,-0.023836,0.062586
2024-01-01 00:00:10.240,-0.13553,0.224423,10.769049,0.084624,0.148692,-0.035826
2024-01-01 00:00:10.250,-0.043539,-0.008117,10.488335,0.047005,0.071473,0.041589
2024-01-01 00:00:10.260,0.040686,0.286678,10.68283,0.033895,0.053819,0.076763
2024-01-01 00:00:10.270,0.134044,0.202718,10.724006,0.073818,0.072344,0.059947
2024-01-01 00:00:10.280,0.382935,0.104861,10.308374,0.045239,0.200521,0.072048
2024-01-01 00:00:10.290,0.290026,0.032259,9.915642,-0.066065,0.153223,0.047197
2024-01-01 00:00:10.300,0.225644,0.020151,10.036588,-0.109008,-0.003495,0.094375
2024-01-01 00:00:10.310,0.007091,-0.034468,9.380216,-0.06434,0.166458,0.037245
2024-01-01 00:00:10.320,0.130763,-0.024525,9.139674,-0.083519,0.071793,-0.106016
2024-01-01 00:00:10.330,0.259109,-0.076176,9.371919,-0.068948,0.183927,-0.138704
2024-01-01 00:00:10.340,0.321245,-0.094422,8.731123,-0.059823,-0.024296,-0.050203
2024-01-01 00:00:10.350,-0.130747,-0.13317,8.754726,-0.160998,0.162302,-0.148159
2024-01-01 00:00:10.360,0.290966,-0.192533,8.793962,0.023558,0.067696,-0.118983
2024-01-01 00:00:10.370,0.080731,-0.062211,8.463278,0.050395,0.15723,-0.058057
2024-01-01 00:00:10.380,0.184201,-0.152227,9.087397,-0.082266,0.03662,-0.013556
2024-01-01 00:00:10.390,-0.023932,-0.164339,9.43327,-0.119743,-0.042285,-0.042578
2024-01-01 00:00:10.400,0.007364,-0.332057,9.863173,-0.234939,-0.137708,-0.033235
2024-01-01 00:00:10.410,-0.161385,-0.241015,9.869371,-0.11046,-0.010833,-0.007098
2024-01-01 00:00:10.420,-0.035983,0.052017,10.295245,-0.167496,-0.016577,0.087619
2024-01-01 00:00:10.430,0.109835,-0.146778,10.474718,-0.108455,-0.064459,0.089302
2024-01-01 00:00:10.440,0.054305,-0.223304,10.311479,-0.193121,0.099561,0.075436
2024-01-01 00:00:10.450,-0.02885,-0.047188,10.690909,-0.131915,-0.042786,0.111244
2024-01-01 00:00:10.460,-0.247406,-0.343752,10.981192,-0.161402,-0.302679,0.111994
2024-01-01 00:00:10.470,-0.198101,-0.191737,11.056412,-0.138349,-0.064874,0.082559
2024-01-01 00:00:10.480,-0.253997,-0.007204,10.501472,-0.152725,-0.034144,0.052856
2024-01-01 00:00:10.490,-0.152021,0.06785,10.214779,-0.007129,-0.16637,0.059947
2024-01-01 00:00:10.500,-0.080786,-0.055692,10.019668,0.04136,-0.04355,0.095197
2024-01-01 00:00:10.510,-0.341813,0.066095,9.846235,-0.127442,-0.09323,0.02834
2024-01-01 00:00:10.520,-0.260268,-0.144126,9.428706,-0.143474,0.007754,-0.003953
2024-01-01 00:00:10.530,-0.075566,-0.091422,9.217595,0.103664,-0.184412,0.061806
2024-01-01 00:00:10.540,-0.04169,0.272522,9.14464,0.113418,-0.060015,-0.195905
2024-01-01 00:00:10.550,-0.302693,-0.085268,9.535253,0.19511,-0.062825,-0.066864
2024-01-01 00:00:10.560,-0.145824,0.283273,8.539713,0.019055,-0.017563,-0.072633
2024-01-01 00:00:10.570,0.036495,0.124412,8.844216,0.244777,0.012102,-0.107218
2024-01-01 00:00:10.580,0.062388,0.172221,8.630803,0.390171,0.050643,-0.174882
2024-01-01 00:00:10.590,-0.10094,0.021446,9.512475,0.107505,0.076758,-0.035917
2024-01-01 00:00:10.600,0.102959,0.028806,9.68618,-0.059188,0.036407,-0.058325
2024-01-01 00:00:10.610,0.04842,0.022607,9.969244,0.031167,-0.008464,-0.053843
2024-01-01 00:00:10.620,-0.080599,0.179618,9.872911,0.230571,-0.042237,0.085819
2024-01-01 00:00:10.630,0.267384,0.090501,10.267148,0.235924,-0.008336,0.042769
2024-01-01 00:00:10.640,0.043364,-0.016576,10.502695,0.071518,-0.026884,-0.026742
2024-01-01 00:00:10.650,0.104498,0.090095,10.556027,-0.027374,0.100469,0.091911
2024-01-01 00:00:10.660,-0.047915,0.141178,10.899531,-0.074605,0.01816,0.042699
2024-01-01 00:00:10.670,0.102216,-0.025873,10.744271,-0.019629,0.083361,0.005922
2024-01-01 00:00:10.680,0.092131,0.063662,10.544662,0.045773,0.137738,0.034503
2024-01-01 00:00:10.690,-0.023771,0.109596,10.395073,0.015185,0.029654,0.095778
2024-01-01 00:00:10.700,0.249487,-0.199272,10.233904,-0.090931,0.16092,-0.034104
2024-01-01 00:00:10.710,0.114074,0.001666,9.641348,-0.050444,0.110413,0.001838
2024-01-01 00:00:10.720,0.309142,0.128878,9.272606,-0.05146,0.190688,-0.022242
2024-01-01 00:00:10.730,0.155261,-0.045834,9.671963,-0.128292,0.146553,-0.041337
2024-01-01 00:00:10.740,0.315654,-0.085239,9.274635,-0.257769,-0.035393,-0.010587
2024-01-01 00:00:10.750,0.171073,-0.110088,8.631407,-0.085276,0.079777,-0.136316
2024-01-01 00:00:10.760,0.122431,-0.218244,8.754044,-0.234994,0.110646,-0.056744
2024-01-01 00:00:10.770,0.098219,-0.132103,8.819203,-0.079808,0.139782,-0.039381
2024-01-01 00:00:10.780,-0.005184,0.02343,8.787884,-0.052731,0.068839,-0.130049
2024-01-01 00:00:10.790,0.008827,-0.131876,9.090988,-0.154201,0.023592,-0.04919
2024-01-01 00:00:10.800,0.137779,-0.08886,9.949405,-0.090967,0.046305,-0.022396
2024-01-01 00:00:10.810,0.106083,-0.194611,9.916902,-0.049089,0.082165,-0.009894
2024-01-01 00:00:10.820,-0.03821,-0.227817,10.181631,-0.080212,-0.082086,0.106086
2024-01-01 00:00:10.830,-0.063279,-0.098929,10.280974,-0.19379,0.055983,0.006088
2024-01-01 00:00:10.840,-0.245869,-0.233736,10.582258,-0.09016,-0.02165,0.024146
2024-01-01 00:00:10.850,-0.168267,-0.249746,10.379666,-0.137548,-0.052086,0.014513
2024-01-01 00:00:10.860,-0.197077,-0.166477,10.987537,-0.117872,-0.18522,0.086998
2024-01-01 00:00:10.870,-0.313659,-0.311728,10.5413,-0.123839,-0.153257,0.065198
2024-01-01 00:00:10.880,-0.028805,-0.141897,10.620578,-0.095205,-0.01089,0.043196
2024-01-01 00:00:10.890,-0.210056,-0.097148,10.389375,-0.004163,-0.045428,0.131276
2024-01-01 00:00:10.900,-0.209784,0.046367,10.346921,-0.190719,-0.074978,0.013849
2024-01-01 00:00:10.910,-0.1062,0.185577,9.733442,-0.018435,-0.212251,-0.009454
2024-01-01 00:00:10.920,-0.309875,-0.001614,9.523741,-0.050192,-0.12163,-0.098597
2024-01-01 00:00:10.930,-0.112611,-0.071891,9.209844,0.045832,-0.192943,-0.001182
2024-01-01 00:00:10.940,-0.456869,0.047138,8.885306,0.00648,-0.03602,-0.0159
2024-01-01 00:00:10.950,-0.240465,0.096132,8.972131,0.1959,0.013763,-0.012405
2024-01-01 00:00:10.960,-0.394741,0.110736,9.174823,0.185213,0.055357,-0.099973
2024-01-01 00:00:10.970,0.016247,0.275958,9.211027,0.194049,-0.01647,-0.145392
2024-01-01 00:00:10.980,-0.018326,0.214561,9.104974,0.1385,-0.062056,-0.046458
2024-01-01 00:00:10.990,-0.157018,0.216066,9.286927,0.15709,-0.047066,-0.083653
2024-01-01 00:00:11.000,-0.050325,0.151229,9.129335,0.178718,0.096077,-0.025003
2024-01-01 00:00:11.010,-0.122989,0.225561,9.750189,0.266253,-0.007031,-0.053309
2024-01-01 00:00:11.020,0.05953,0.065095,9.746804,0.226649,-0.064376,0.023989
2024-01-01 00:00:11.030,0.133358,0.155045,10.124678,0.105154,0.113972,0.041527
2024-01-01 00:00:11.040,-0.003184,0.268179,10.598796,0.25117,0.03984,0.051027
2024-01-01 00:00:11.050,0.144331,0.316878,10.251841,0.311482,0.082087,0.052935
2024-01-01 00:00:11.060,0.020965,0.108241,10.771133,0.02325,0.076687,0.130533
2024-01-01 00:00:11.070,0.106855,0.18307,10.788144,0.16545,0.123916,0.10356
2024-01-01 00:00:11.080,0.191791,-0.074636,10.3983,-0.027701,0.201694,0.065998
2024-01-01 00:00:11.090,0.272539,0.024395,10.576848,0.035664,0.129073,0.179372
2024-01-01 00:00:11.100,0.11262,0.146711,10.493103,0.023267,0.15996,0.07374
2024-01-01 00:00:11.110,0.185242,0.320301,9.864593,-0.002609,0.097706,0.0422
2024-01-01 00:00:11.120,0.254207,-0.022245,10.347239,0.029536,-0.001187,-0.00674
2024-01-01 00:00:11.130,0.28955,0.114981,9.716673,-0.051585,0.104025,-0.051707
2024-01-01 00:00:11.140,0.357807,-0.082193,9.246512,-0.068801,0.140442,-0.097536
2024-01-01 00:00:11.150,0.157656,-0.094464,8.904738,-0.169047,0.09437,-0.019728
2024-01-01 00:00:11.160,0.392783,-0.043289,9.174445,-0.169753,0.007143,-0.108899
2024-01-01 00:00:11.170,0.045618,-0.035421,8.972756,-0.102567,0.174748,-0.113839
2024-01-01 00:00:11.180,0.219673,-0.186046,9.009389,-0.095318,-0.021508,-0.021383
2024-01-01 00:00:11.190,0.284329,-0.088626,9.016792,-0.148642,0.01699,-0.133087
2024-01-01 00:00:11.200,0.286717,-0.069764,9.163845,-0.264244,0.047358,-0.061224
2024-01-01 00:00:11.210,0.020683,-0.148618,9.54777,-0.062726,-0.024639,-0.017435
2024-01-01 00:00:11.220,-0.123337,-0.376884,9.806488,-0.138147,0.073355,-0.064091
2024-01-01 00:00:11.230,-0.210562,-0.18532,10.077337,-0.168868,-0.110833,0.060106
2024-01-01 00:00:11.240,-0.10911,-0.103918,10.186195,-0.072261,-0.081165,0.115383
2024-01-01 00:00:11.250,-0.306724,-0.200199,10.643264,-0.139995,-0.10092,-0.017848
2024-01-01 00:00:11.260,-0.207343,0.110355,11.00858,-0.135259,-0.127019,0.135293
2024-01-01 00:00:11.270,-0.355158,-0.105015,10.512376,-0.074117,-0.054494,0.116473
2024-01-01 00:00:11.280,-0.117275,-0.033495,10.775094,0.030674,-0.053568,0.07019
2024-01-01 00:00:11.290,-0.041014,0.076846,10.58266,-0.081924,-0.152065,0.052896
2024-01-01 00:00:11.300,-0.206216,-0.244202,10.72567,0.085992,-0.150456,0.126542
2024-01-01 00:00:11.310,-0.020382,0.054905,10.200623,0.048155,-0.162379,0.073086
2024-01-01 00:00:11.320,-0.240066,-0.271544,9.801732,-0.085316,-0.108184,0.01773
2024-01-01 00:00:11.330,-0.121534,0.113783,9.719044,0.05117,-0.088769,-0.075673
2024-01-01 00:00:11.340,-0.306935,0.056905,9.066328,-0.039659,-0.13047,0.006855
2024-01-01 00:00:11.350,-0.153875,-0.012474,9.266341,0.067962,0.069725,-0.053288
2024-01-01 00:00:11.360,-0.069449,0.1273,8.977274,0.065011,-0.065387,-0.152382
2024-01-01 00:00:11.370,-0.106108,0.301882,9.146808,0.035422,-0.039785,-0.089806
2024-01-01 00:00:11.380,-0.000296,0.189918,8.555396,0.217721,-0.014445,-0.118975
2024-01-01 00:00:11.390,-0.081372,0.363666,8.998046,0.144363,-0.034656,-0.10445
2024-01-01 00:00:11.400,-0.062054,0.238201,9.001447,0.211188,-0.031942,-0.015914
2024-01-01 00:00:11.410,-0.022672,0.075781,9.693506,0.160521,0.059019,-0.042419
2024-01-01 00:00:11.420,0.132815,0.220935,10.027456,0.127502,0.056378,0.031116
2024-01-01 00:00:11.430,0.065089,0.325507,9.908067,0.134702,0.089632,0.039022
2024-01-01 00:00:11.440,0.104469,0.062145,10.09856,0.080011,0.016803,-0.005788
2024-01-01 00:00:11.450,0.10248,0.334148,10.767755,0.248139,0.07512,0.101608
2024-01-01 00:00:11.460,0.247008,0.094691,10.854973,0.194177,0.09951,0.034941
2024-01-01 00:00:11.470,-0.152499,0.20383,10.833076,-0.011362,0.012728,0.114736
2024-01-01 00:00:11.480,0.076148,0.142769,10.719275,0.097274,-0.025556,0.067407
2024-01-01 00:00:11.490,0.176391,0.01317,10.550701,-0.010771,0.209672,0.115689
2024-01-01 00:00:11.500,0.201035,-0.076533,10.131265,-0.007769,0.097542,0.111798
2024-01-01 00:00:11.510,0.016314,0.053295,10.273757,0.028651,0.239204,-0.005676
2024-01-01 00:00:11.520,0.387517,-0.041311,10.401584,0.016473,0.170007,0.019293
2024-01-01 00:00:11.530,0.222997,-0.078638,9.540539,-0.032537,0.066531,0.111522
2024-01-01 00:00:11.540,0.131637,0.011024,9.470618,0.000849,0.008631,-0.062162
2024-01-01 00:00:11.550,0.357445,0.032278,9.312636,-0.033514,0.059507,-0.052245
2024-01-01 00:00:11.560,0.290567,-0.178714,9.174831,-0.038339,0.110004,-0.074275
2024-01-01 00:00:11.570,-0.01972,-0.138838,8.685908,-0.105238,0.127418,-0.095529
2024-01-01 00:00:11.580,-0.12648,-0.08163,8.649484,-0.136089,0.091636,-0.116633
2024-01-01 00:00:11.590,0.008364,0.023725,8.781774,-0.10661,0.119655,-0.088347
2024-01-01 00:00:11.600,0.191116,-0.214748,9.205267,-0.013194,0.091778,-0.041622
2024-01-01 00:00:11.610,0.158075,-0.239439,9.363665,-0.058883,0.098265,-0.034004
2024-01-01 00:00:11.620,0.069261,-0.074743,9.252824,-0.205185,0.067657,-0.102566
2024-01-01 00:00:11.630,0.097172,-0.120638,9.919932,-0.070215,0.029251,-0.026067
2024-01-01 00:00:11.640,-0.056904,-0.182374,10.210524,-0.14599,-0.094448,0.076175
2024-01-01 00:00:11.650,0.081377,-0.217873,10.406298,-0.291178,0.116473,0.089765
2024-01-01 00:00:11.660,0.011956,0.059128,10.552588,-0.118422,-0.019523,0.054937
2024-01-01 00:00:11.670,-0.22753,-0.113199,10.616706,-0.096637,-0.067363,0.092912
2024-01-01 00:00:11.680,-0.148278,0.070941,10.65267,-0.201117,-0.048368,0.036248
2024-01-01 00:00:11.690,-0.151289,-0.079707,10.816466,-0.060702,-0.217537,-0.00764
2024-01-01 00:00:11.700,-0.073876,-0.04927,10.261577,0.12281,-0.086465,0.035198
2024-01-01 00:00:11.710,-0.303325,0.20394,10.643428,0.095072,-0.301854,0.012199
2024-01-01 00:00:11.720,-0.205062,0.114249,9.530952,-0.0255,-0.108716,0.000162
2024-01-01 00:00:11.730,-0.1299,-0.028927,9.747508,-0.015983,-0.058027,0.046853
2024-01-01 00:00:11.740,-0.25616,-0.123519,9.462929,0.100207,-0.051775,-0.021777
2024-01-01 00:00:11.750,-0.078269,0.066146,9.118116,0.126494,-0.245081,-0.032313
2024-01-01 00:00:11.760,-0.085722,-0.01582,9.129767,0.013636,-0.067563,-0.109406
2024-01-01 00:00:11.770,-0.232645,0.072793,8.766982,0.150813,0.012603,-0.118951
2024-01-01 00:00:11.780,-0.147463,0.022216,9.195617,0.156968,-0.144035,-0.062119
2024-01-01 00:00:11.790,-0.096892,0.199069,8.919167,0.024478,-0.041885,-0.041928
2024-01-01 00:00:11.800,-0.099049,0.242124,8.870605,0.132503,-0.109381,-0.132212
2024-01-01 00:00:11.810,-0.197263,0.198586,9.055356,0.186632,-0.068341,-0.009487
2024-01-01 00:00:11.820,-0.131329,0.406927,9.429296,0.207749,-0.038179,0.064997
2024-01-01 00:00:11.830,0.20534,0.220808,9.650065,0.221159,-0.093793,0.052738
2024-01-01 00:00:11.840,-0.029282,0.131003,9.908369,0.185277,0.039526,0.054141
2024-01-01 00:00:11.850,0.117698,0.097923,10.054361,0.110403,0.043531,0.007195
2024-01-01 00:00:11.860,0.020317,0.22482,10.678796,0.180341,0.144053,0.00736
2024-01-01 00:00:11.870,-0.126401,0.11589,10.733527,0.087491,0.115311,0.059751
2024-01-01 00:00:11.880,0.381757,0.016373,10.863531,0.203207,0.113378,0.070284
2024-01-01 00:00:11.890,0.05334,0.026657,10.562158,0.11993,0.053098,0.163158
2024-01-01 00:00:11.900,0.182898,0.08296,10.620329,0.067178,0.033939,0.08247
2024-01-01 00:00:11.910,0.081595,0.037892,9.978272,0.005119,0.218669,0.119185
2024-01-01 00:00:11.920,0.143629,0.037441,10.264973,-0.056168,0.143381,0.053157
2024-01-01 00:00:11.930,0.186404,0.084312,9.646581,0.14669,0.085327,-0.048717
2024-01-01 00:00:11.940,0.142494,-0.081812,9.744366,0.163603,0.205125,0.009256
2024-01-01 00:00:11.950,0.250107,0.012566,9.565129,0.017228,0.075009,-0.031806
2024-01-01 00:00:11.960,0.390305,0.031975,9.29324,-0.040416,0.185058,-0.017425
2024-01-01 00:00:11.970,0.12943,0.040288,8.972644,-0.151919,-0.000657,-0.123057
2024-01-01 00:00:11.980,0.301804,-0.285123,8.766024,-0.188274,0.132451,-0.148035
2024-01-01 00:00:11.990,0.054793,-0.221358,9.125033,-0.084892,0.131014,-0.094971
2024-01-01 00:00:12.000,0.156903,-0.088237,9.165523,-0.081145,0.01363,-0.045235
2024-01-01 00:00:12.010,0.008315,0.048076,9.285044,-0.10013,-0.063708,-0.106924
2024-01-01 00:00:12.020,0.046029,-0.226729,9.641686,-0.163576,0.148903,-0.003834
2024-01-01 00:00:12.030,0.013546,-0.029391,9.632465,-0.143688,0.025179,-0.046372
2024-01-01 00:00:12.040,0.145103,-0.199326,9.675056,-0.179846,-0.000798,0.028593
2024-01-01 00:00:12.050,0.042691,-0.371787,10.281932,-0.142483,0.038728,-0.005679
2024-01-01 00:00:12.060,-0.012002,-0.144642,10.63882,-0.177198,0.04973,0.077571
2024-01-01 00:00:12.070,-0.13257,-0.098839,10.711817,-0.082827,-0.024012,0.063581
2024-01-01 00:00:12.080,-0.016783,-0.075217,10.678662,-0.16867,-0.031647,0.164783
2024-01-01 00:00:12.090,-0.036652,-0.090156,10.759447,-0.066226,-0.112558,0.096948
2024-01-01 00:00:12.100,-0.141583,-0.114278,10.772798,-0.242448,-0.125337,0.08341
2024-01-01 00:00:12.110,-0.246192,-0.093498,10.542625,-0.077741,-0.199282,0.087238
2024-01-01 00:00:12.120,-0.160919,0.068676,10.439998,-0.102053,-0.061819,-0.016928
2024-01-01 00:00:12.130,-0.365051,-0.148107,10.083675,-0.07149,-0.230615,0.07968
2024-01-01 00:00:12.140,-0.071333,-0.233262,9.962967,0.048635,-0.072614,-0.009069
2024-01-01 00:00:12.150,-0.432189,-0.013657,9.651813,-0.058205,-0.117568,-0.101096
2024-01-01 00:00:12.160,-0.04613,0.025263,9.336761,0.108829,-0.084088,-0.1303
2024-01-01 00:00:12.170,-0.2851,0.105214,9.256721,0.088988,-0.087171,-0.093362
2024-01-01 00:00:12.180,-0.239142,0.034019,9.076929,-0.017236,-0.177743,-0.102124
2024-01-01 00:00:12.190,-0.194492,0.184362,8.785288,0.039515,-0.099463,-0.019672
2024-01-01 00:00:12.200,-0.034734,-0.023934,8.804116,0.127325,0.065684,0.032687
2024-01-01 00:00:12.210,-0.15152,0.197029,8.933423,0.173249,0.023928,0.012466
2024-01-01 00:00:12.220,0.043579,0.095191,9.320253,0.232963,0.043666,-0.057895
2024-01-01 00:00:12.230,0.10015,0.243381,9.179749,0.122045,0.067594,-0.120365
2024-01-01 00:00:12.240,0.115681,0.086979,9.457587,0.052999,-0.072381,0.195625
2024-01-01 00:00:12.250,-0.08976,0.058655,9.996686,0.22799,-0.004176,-0.002352
2024-01-01 00:00:12.260,0.214922,0.154885,10.555501,0.161884,0.023163,0.026954
2024-01-01 00:00:12.270,0.01944,0.057345,10.681521,0.045856,0.109914,0.095564
2024-01-01 00:00:12.280,0.372935,0.193378,10.471187,0.208513,0.123159,0.06643
2024-01-01 00:00:12.290,0.086319,0.214455,10.574881,0.092443,0.00913,0.053467
2024-01-01 00:00:12.300,-0.109937,0.043313,10.670582,0.22295,0.064116,-0.059651
2024-01-01 00:00:12.310,0.299869,0.247316,10.401644,0.046899,0.176954,-0.014149
2024-01-01 00:00:12.320,0.161048,-0.116737,10.250516,-0.062941,-0.054326,0.05071
2024-01-01 00:00:12.330,0.064226,-0.05811,10.296777,-0.009777,0.105547,0.145799
2024-01-01 00:00:12.340,0.077475,0.040765,9.873745,-0.02811,0.000725,-0.009017
2024-01-01 00:00:12.350,0.400895,-0.273245,10.029345,-0.16465,0.10171,0.054137
2024-01-01 00:00:12.360,0.170328,-0.170196,9.294049,0.070449,0.066546,0.023015
2024-01-01 00:00:12.370,0.139034,-0.106452,8.963922,0.004504,0.146737,-0.11714
2024-01-01 00:00:12.380,0.190704,-0.048468,8.939693,-0.1054,-0.055356,-0.063212
2024-01-01 00:00:12.390,0.207438,-0.001003,8.855885,-0.109737,0.082187,-0.130717
2024-01-01 00:00:12.400,-0.01466,-0.148854,8.822584,-0.260837,-0.08455,-0.14434
2024-01-01 00:00:12.410,0.132796,-0.158885,8.988453,-0.106628,0.010704,-0.048248
2024-01-01 00:00:12.420,-0.015403,-0.080684,9.386267,-0.118472,-0.017836,0.004364
2024-01-01 00:00:12.430,0.042842,-0.281674,9.441337,-0.190319,-0.082602,-0.094565
2024-01-01 00:00:12.440,0.026488,-0.197342,9.55874,-0.09383,0.001057,-0.057465
2024-01-01 00:00:12.450,0.376637,-0.088763,9.94118,-0.263433,-0.00164,-0.024453
2024-01-01 00:00:12.460,0.106659,-0.153261,10.197346,-0.065578,-0.006932,0.070296
2024-01-01 00:00:12.470,0.27353,0.092381,9.949892,-0.024882,0.067328,-0.011665
2024-01-01 00:00:12.480,-0.136556,-0.22801,10.696157,-0.113787,-0.024911,0.050411
2024-01-01 00:00:12.490,-0.008022,-0.255294,10.92197,-0.131424,0.006067,0.07838
2024-01-01 00:00:12.500,-0.120289,-0.059341,10.915187,-0.029527,-0.141348,0.023955
2024-01-01 00:00:12.510,0.016168,-0.214035,10.738732,-0.104981,-0.071435,0.078478
2024-01-01 00:00:12.520,-0.428747,-0.029259,10.666713,-0.07297,0.001561,0.153991
2024-01-01 00:00:12.530,-0.356432,-0.149269,10.317021,0.10741,-0.124418,0.00529
2024-01-01 00:00:12.540,-0.405633,-0.004463,9.712534,-0.00074,-0.105326,0.036298
2024-01-01 00:00:12.550,-0.093685,0.074661,9.850583,0.047643,-0.151295,0.033337
2024-01-01 00:00:12.560,-0.296021,0.015744,9.415703,0.025832,-0.075509,-0.073567
2024-01-01 00:00:12.570,-0.147497,0.084678,9.057815,0.119912,-0.208192,-0.026843
2024-01-01 00:00:12.580,-0.133713,-0.068788,9.047278,-0.004053,-0.087761,-0.132936
2024-01-01 00:00:12.590,-0.189672,0.200532,9.081532,0.172209,-0.096003,-0.082394
2024-01-01 00:00:12.600,-0.024541,0.331476,8.967805,0.098781,-0.112273,-0.119979
2024-01-01 00:00:12.610,-0.1379,0.2161,9.029108,0.02792,-0.085452,-0.002597
2024-01-01 00:00:12.620,0.036346,0.320693,8.823059,0.276814,-0.009618,-0.040626
2024-01-01 00:00:12.630,-0.135471,0.136439,9.365062,0.20199,0.076584,0.031405
2024-01-01 00:00:12.640,0.030172,0.196398,9.633089,0.225627,-0.180277,-0.016323
2024-01-01 00:00:12.650,0.083136,0.281338,9.564699,-0.075455,-0.019433,-0.048762
2024-01-01 00:00:12.660,-0.153353,0.04129,10.094117,0.203989,0.044823,-0.020507
2024-01-01 00:00:12.670,0.082199,0.106043,10.559618,0.174451,0.133593,0.040516
2024-01-01 00:00:12.680,0.053603,0.076833,10.791047,0.14773,0.121645,0.116343
2024-01-01 00:00:12.690,0.024768,0.174354,11.027268,0.141838,0.061226,0.053604
2024-01-01 00:00:12.700,0.438528,0.128281,10.493265,0.037705,0.119248,0.055304
2024-01-01 00:00:12.710,0.269057,-0.006468,10.533015,0.022397,-0.047253,0.195925
2024-01-01 00:00:12.720,0.312912,0.038658,10.820507,0.143448,0.036818,0.107722
2024-01-01 00:00:12.730,0.413894,0.015725,10.660296,0.120557,-0.003337,0.056263
2024-01-01 00:00:12.740,0.281971,0.099116,10.122418,0.108456,0.158769,0.048564
2024-01-01 00:00:12.750,0.134051,0.081596,9.954753,0.086021,0.100316,0.020164
2024-01-01 00:00:12.760,0.374751,-0.144952,9.439785,-0.033235,0.076264,0.128162
2024-01-01 00:00:12.770,0.074557,-0.094712,9.320084,-0.188661,0.160089,-0.035406
2024-01-01 00:00:12.780,0.034422,-0.177115,9.006063,-0.085972,0.080398,0.01991
2024-01-01 00:00:12.790,0.207913,0.002433,8.67149,0.03589,0.036192,-0.101013
2024-01-01 00:00:12.800,0.229031,0.100387,8.594452,-0.074218,0.040658,0.031034
2024-01-01 00:00:12.810,0.039646,-0.214948,8.958778,-0.213839,0.049979,-0.058121
2024-01-01 00:00:12.820,0.044943,-0.160846,8.779358,-0.32104,0.114067,0.012526
2024-01-01 00:00:12.830,-0.018179,-0.133981,9.450378,-0.121833,0.026425,0.019206
2024-01-01 00:00:12.840,0.095535,-0.279081,9.183249,-0.163604,-0.057543,-0.057372
2024-01-01 00:00:12.850,0.006521,-0.007503,9.466029,-0.125458,-0.031294,0.022567
2024-01-01 00:00:12.860,-0.072541,-0.204556,10.228504,-0.054206,-0.080561,0.018405
2024-01-01 00:00:12.870,-0.063284,-0.065231,10.154783,-0.225253,0.03018,-0.01554
2024-01-01 00:00:12.880,0.047209,-0.063144,10.709361,-0.050694,-0.043431,0.097694
2024-01-01 00:00:12.890,-0.11951,-0.202706,10.436402,-0.08896,-0.01988,0.034237
2024-01-01 00:00:12.900,-0.149819,0.053994,10.776465,-0.032741,-0.159877,0.174172
2024-01-01 00:00:12.910,-0.194202,-0.037916,10.830292,-0.147917,0.010456,0.097569
2024-01-01 00:00:12.920,0.014168,0.024332,10.500614,-0.021821,-0.184687,0.042802
2024-01-01 00:00:12.930,-0.119028,-0.193885,10.165273,-0.129315,-0.077293,-0.035109
2024-01-01 00:00:12.940,-0.04923,-0.025119,10.414245,0.025178,-0.109554,-0.086697
2024-01-01 00:00:12.950,-0.16098,-0.137622,9.968548,0.051076,-0.114396,0.017805
2024-01-01 00:00:12.960,-0.385691,0.267689,9.876958,0.111606,-0.22646,-0.112039
2024-01-01 00:00:12.970,-0.243167,0.048924,9.600399,-0.043267,-0.177471,-0.099658
2024-01-01 00:00:12.980,-0.164339,-0.013583,9.040988,0.068415,-0.177893,0.038436
2024-01-01 00:00:12.990,-0.023249,-0.098703,8.801451,0.140399,-0.063711,-0.017084
2024-01-01 00:00:13.000,-0.440088,0.305063,8.691972,0.088949,-0.1265,-0.110489
2024-01-01 00:00:13.010,-0.049788,0.237496,9.496105,0.124717,-0.027793,-0.07223
2024-01-01 00:00:13.020,0.031145,-0.002403,8.690642,-0.027211,-0.143358,-0.112848
2024-01-01 00:00:13.030,-0.201982,0.156561,9.055556,0.119206,-0.138549,-0.045069
2024-01-01 00:00:13.040,-0.230808,0.084516,9.45742,0.152592,-0.119747,-0.027
2024-01-01 00:00:13.050,0.355042,0.278083,9.327983,0.177159,-0.001628,-0.076543
2024-01-01 00:00:13.060,0.006549,0.172414,9.992689,0.201237,0.059434,-0.015458
2024-01-01 00:00:13.070,-0.044956,-0.037336,10.047357,0.21847,-0.043997,0.062255
2024-01-01 00:00:13.080,0.085935,0.199677,10.371212,0.246229,0.077468,0.022309
2024-01-01 00:00:13.090,0.216739,0.25879,10.655397,0.071599,0.009889,-0.006028
2024-01-01 00:00:13.100,0.035069,0.151304,10.543949,0.243481,0.018406,0.14697
2024-01-01 00:00:13.110,0.31094,0.235287,10.7079,0.082049,0.080408,0.173293
2024-01-01 00:00:13.120,-0.033338,-0.084833,10.479676,0.218282,0.177362,0.083237
2024-01-01 00:00:13.130,0.166161,0.161232,10.822752,0.163336,0.043971,0.042917
2024-01-01 00:00:13.140,0.195938,-0.13732,10.537712,0.005084,0.165866,0.063644
2024-01-01 00:00:13.150,0.375688,0.096134,10.127368,0.168948,0.15367,-0.021905
2024-01-01 00:00:13.160,0.183487,-0.108855,10.091504,0.005872,0.005567,-0.040399
2024-01-01 00:00:13.170,0.183253,-0.089481,9.290687,-0.068954,0.069527,0.013216
2024-01-01 00:00:13.180,0.15042,-0.065428,9.025172,0.022209,0.0273,-0.120087
2024-01-01 00:00:13.190,-0.113851,0.138894,8.945021,-0.06184,0.103184,-0.05097
2024-01-01 00:00:13.200,0.099783,-0.013579,8.688156,-0.170961,0.024595,-0.08371
2024-01-01 00:00:13.210,0.4107,0.022576,8.61238,-0.027062,0.058497,-0.025586
2024-01-01 00:00:13.220,0.098885,-0.13717,8.68968,-0.230933,0.110164,-0.067181
2024-01-01 00:00:13.230,0.183638,-0.263866,9.333523,-0.29314,0.094741,-0.201261
2024-01-01 00:00:13.240,0.024646,-0.250518,9.287264,-0.149109,-0.047391,0.022859
2024-01-01 00:00:13.250,0.062885,-0.325597,9.449091,-0.165858,0.053018,0.008091
2024-01-01 00:00:13.260,-0.029966,-0.00633,9.729507,-0.116664,0.091396,0.014113
2024-01-01 00:00:13.270,-0.126496,-0.184698,9.904202,-0.142518,-0.020122,-0.061253
2024-01-01 00:00:13.280,-0.006451,-0.026087,10.153078,-0.196246,-0.061295,-0.022538
2024-01-01 00:00:13.290,-0.179478,-0.254275,10.520303,-0.198837,-0.232308,0.110187
2024-01-01 00:00:13.300,0.005705,-0.099409,10.795999,-0.142106,-0.025294,0.076631
2024-01-01 00:00:13.310,-0.055378,-0.24566,10.91245,-0.106443,-0.045285,0.117206
2024-01-01 00:00:13.320,-0.252448,-0.058367,10.977915,-0.135997,-0.191666,0.12084
2024-01-01 00:00:13.330,-0.265303,-0.048066,10.573509,-0.020749,-0.107412,0.035135
2024-01-01 00:00:13.340,-0.039931,-0.136979,10.61798,0.032181,-0.118028,0.082584
2024-01-01 00:00:13.350,-0.066321,0.175631,10.055085,-0.009745,-0.046121,0.04322
2024-01-01 00:00:13.360,-0.24463,0.050037,9.879088,0.029487,-0.168383,0.055626
2024-01-01 00:00:13.370,-0.21998,0.084831,9.619688,-0.016321,-0.124931,-0.04305
2024-01-01 00:00:13.380,-0.229781,0.031507,9.388671,-0.107687,-0.216327,-0.103359
2024-01-01 00:00:13.390,-0.017258,0.074796,8.960002,0.035278,-0.181499,-0.054263
2024-01-01 00:00:13.400,-0.070437,0.206101,8.816993,0.13416,-0.067781,-0.038943
2024-01-01 00:00:13.410,-0.091263,0.205777,8.616653,0.022759,0.057714,-0.101518
2024-01-01 00:00:13.420,-0.236603,0.102236,8.719148,0.06984,-0.118004,-0.112518
2024-01-01 00:00:13.430,-0.228975,0.18049,8.696487,0.154354,-0.087176,-0.022466
2024-01-01 00:00:13.440,0.037901,0.201547,9.067737,0.13619,-0.006708,0.040797
2024-01-01 00:00:13.450,0.154864,0.092106,9.487939,0.225564,-0.10785,-0.040033
2024-01-01 00:00:13.460,-0.34234,0.153723,9.76163,0.10782,0.058835,0.001591
2024-01-01 00:00:13.470,-0.176633,0.228873,10.190376,0.135521,0.044215,0.003892
2024-01-01 00:00:13.480,0.122497,0.134843,10.20619,0.003809,0.102668,0.014496
2024-01-01 00:00:13.490,0.04622,-0.0209,10.725818,0.157131,-0.017188,-0.032495
2024-01-01 00:00:13.500,-0.010553,0.094208,10.787125,0.044037,0.061962,0.041286
2024-01-01 00:00:13.510,0.20941,0.196254,11.359302,0.187613,0.016784,0.061828
2024-01-01 00:00:13.520,-0.009469,0.113044,10.807118,0.122447,0.060409,0.070608
2024-01-01 00:00:13.530,0.277014,-0.026051,10.594448,0.015128,0.062878,0.128035
2024-01-01 00:00:13.540,0.130528,0.106697,10.357971,0.032206,0.147885,-0.036808
2024-01-01 00:00:13.550,0.391963,-0.198274,10.39252,-0.093012,0.12036,-0.018779
2024-01-01 00:00:13.560,0.174301,0.101384,10.175327,-0.037314,0.000945,0.042013
2024-01-01 00:00:13.570,0.316583,-0.118243,9.88471,0.084037,0.111886,0.019817
2024-01-01 00:00:13.580,0.141329,0.025897,9.396803,-0.002433,0.0442,0.022613
2024-01-01 00:00:13.590,0.06989,-0.036308,8.980497,-0.128703,0.144526,-0.031823
2024-01-01 00:00:13.600,0.102741,0.067153,9.137385,-0.138804,-0.023755,-0.124851
2024-01-01 00:00:13.610,0.164834,-0.106638,8.65756,-0.034711,0.094546,-0.126093
2024-01-01 00:00:13.620,-0.047467,-0.115951,8.852498,-0.296397,0.005348,-0.119569
2024-01-01 00:00:13.630,0.245624,-0.05105,8.966421,-0.103564,0.079603,-0.061443
2024-01-01 00:00:13.640,0.082636,-0.095736,9.210538,-0.063124,-0.073505,-0.068367
2024-01-01 00:00:13.650,-0.222789,-0.24355,8.738253,-0.083384,-0.012671,-0.022859
2024-01-01 00:00:13.660,-0.15102,-0.239827,9.734805,-0.185167,0.064689,-0.04086
2024-01-01 00:00:13.670,-0.140371,-0.147121,9.858483,-0.022254,-0.019825,0.049922
2024-01-01 00:00:13.680,-0.167969,-0.158583,9.928741,-0.065159,0.010559,0.01665
2024-01-01 00:00:13.690,-0.041161,0.034622,10.550202,-0.026446,0.03436,-0.021329
2024-01-01 00:00:13.700,-0.115863,-0.049979,10.476411,-0.035765,-0.027158,-0.011569
2024-01-01 00:00:13.710,-0.071028,-0.097828,10.539382,-0.128537,-0.078856,0.131121
2024-01-01 00:00:13.720,-0.228035,-0.161008,10.659824,-0.244279,0.059782,0.14109
2024-01-01 00:00:13.730,-0.045934,-0.18504,10.647633,-0.100343,0.049832,-0.027766
2024-01-01 00:00:13.740,-0.261903,-0.058601,10.5853,-0.189065,-0.037309,0.007932
2024-01-01 00:00:13.750,-0.287863,-0.112216,10.485138,-0.119955,-0.03421,0.097506
2024-01-01 00:00:13.760,-0.141621,-0.031236,9.783903,0.021051,-0.214347,0.087691
2024-01-01 00:00:13.770,-0.321869,-0.018777,9.767518,-0.068261,-0.201751,-0.060879
2024-01-01 00:00:13.780,-0.087912,0.032001,9.511368,0.063861,-0.088248,-0.044475
2024-01-01 00:00:13.790,-0.009745,0.037045,9.239089,0.032247,-0.089726,-0.112722
2024-01-01 00:00:13.800,-0.065136,0.095568,9.233012,0.069157,-0.048149,-0.068674
2024-01-01 00:00:13.810,-0.266995,0.094512,9.100771,0.065374,-0.114199,-0.070456
2024-01-01 00:00:13.820,-0.207465,0.110435,9.01115,0.185313,-0.108067,-0.182092
2024-01-01 00:00:13.830,-0.052921,-0.045618,8.86848,0.179491,-0.056204,-0.109314
2024-01-01 00:00:13.840,-0.121558,0.110212,8.985156,0.149216,0.019588,0.005998
2024-01-01 00:00:13.850,0.096282,0.188399,9.115631,0.096888,-0.07273,-0.117776
2024-01-01 00:00:13.860,0.128242,0.056859,9.474081,0.253156,0.017405,-0.046677
2024-01-01 00:00:13.870,0.126847,0.073232,9.642581,0.119217,-0.041083,0.055502
2024-01-01 00:00:13.880,0.215524,0.171929,9.748238,0.098423,-0.022374,0.077243
2024-01-01 00:00:13.890,-0.047879,-0.163827,10.045139,0.148301,0.009627,0.024798
2024-01-01 00:00:13.900,0.006604,0.243956,10.528646,0.155646,-0.115767,0.060962
2024-01-01 00:00:13.910,0.177714,0.098953,10.519878,0.08353,-0.017956,0.042469
2024-01-01 00:00:13.920,0.349327,-0.060889,10.728562,0.108035,0.067103,0.143397
2024-01-01 00:00:13.930,0.045503,0.129848,10.757107,0.15628,0.178006,0.062231
2024-01-01 00:00:13.940,0.144847,0.066387,10.597873,-0.026418,0.127132,-0.047863
2024-01-01 00:00:13.950,0.24531,-0.043578,10.657765,0.065025,0.215439,0.067847
2024-01-01 00:00:13.960,0.182994,0.034131,10.65432,-0.040091,0.122727,0.055928
2024-01-01 00:00:13.970,-0.063605,0.017185,10.047925,-0.001906,0.051919,0.007754
2024-01-01 00:00:13.980,0.132813,0.049453,10.073064,0.104321,0.116261,0.009027
2024-01-01 00:00:13.990,0.14008,0.028549,9.205947,0.043747,0.110506,0.052175
2024-01-01 00:00:14.000,0.140596,-0.087963,9.189302,0.059017,0.125463,-0.067583
2024-01-01 00:00:14.010,0.050896,-0.199842,8.731985,-0.119136,0.069794,-0.17867
2024-01-01 00:00:14.020,0.123864,-0.085523,8.815802,-0.031046,0.012056,-0.081763
2024-01-01 00:00:14.030,-0.124775,-0.044976,8.837662,-0.060428,0.086888,-0.090026
2024-01-01 00:00:14.040,-0.002556,-0.075403,8.88304,-0.062038,0.206553,-0.083585
2024-01-01 00:00:14.050,0.013889,-0.047495,8.973009,-0.128781,-0.047517,-0.032192
2024-01-01 00:00:14.060,0.044199,-0.054464,9.566891,-0.182776,-0.041947,0.029592
2024-01-01 00:00:14.070,0.113138,-0.071682,9.537777,-0.017579,-0.026461,0.033873
2024-01-01 00:00:14.080,-0.082128,-0.285168,9.592639,-0.156151,0.081684,-0.027776
2024-01-01 00:00:14.090,0.020831,-0.236042,10.327758,-0.027733,-0.00635,0.012487
2024-01-01 00:00:14.100,-0.107051,-0.131397,10.636505,-0.063507,-0.002049,-0.047166
2024-01-01 00:00:14.110,-0.260683,-0.268485,10.77178,-0.129297,-0.054245,0.075709
2024-01-01 00:00:14.120,-0.105447,0.057673,10.823464,-0.200844,-0.066759,0.152811
2024-01-01 00:00:14.130,-0.094368,-0.142529,10.253081,0.004022,-0.038575,-0.01164
2024-01-01 00:00:14.140,0.007817,-0.157123,10.589731,0.020351,-0.101539,0.046098
2024-01-01 00:00:14.150,-0.189418,-0.120424,10.521709,-0.180075,-0.157592,0.018145
2024-01-01 00:00:14.160,-0.154108,-0.120185,10.156332,-0.152593,-0.113327,0.029036
2024-01-01 00:00:14.170,-0.062254,-0.07101,10.312575,-0.025679,-0.076847,-0.02031
2024-01-01 00:00:14.180,-0.178422,-0.070334,9.853217,-0.030939,-0.093291,-0.023173
2024-01-01 00:00:14.190,-0.385119,-0.168011,9.389553,-0.05066,-0.047812,-0.025837
2024-01-01 00:00:14.200,-0.268358,-0.045261,9.171439,0.180402,-0.132274,-0.012652
2024-01-01 00:00:14.210,-0.09059,0.318851,8.948776,-0.006678,-0.16708,-0.061139
2024-01-01 00:00:14.220,-0.171545,0.09335,9.012326,0.035099,-0.154806,-0.145911
2024-01-01 00:00:14.230,-0.083659,0.345218,8.754695,-0.021205,-0.142102,-0.119704
2024-01-01 00:00:14.240,0.017555,0.051247,8.877127,0.297298,-0.080888,-0.069207
2024-01-01 00:00:14.250,-0.059804,-0.021485,8.671896,0.153601,-0.008644,-0.014929
2024-01-01 00:00:14.260,-0.042691,0.076406,9.298519,0.110999,0.017554,-0.125965
2024-01-01 00:00:14.270,-0.047742,0.333818,9.187606,0.22604,0.040196,0.039336
2024-01-01 00:00:14.280,0.030676,0.251126,9.872663,0.168977,-0.017431,-0.003832
2024-01-01 00:00:14.290,0.015177,0.000883,10.35356,0.264406,-0.033939,0.029785
2024-01-01 00:00:14.300,0.12375,0.212867,10.428704,0.132747,0.168519,-0.013472
2024-01-01 00:00:14.310,0.062057,0.18831,10.06989,0.02134,0.087663,0.006991
2024-01-01 00:00:14.320,0.118565,0.218909,10.802064,0.173798,0.017292,0.047987
2024-01-01 00:00:14.330,-0.105671,0.168382,10.504474,0.222277,0.087507,0.097116
2024-01-01 00:00:14.340,0.145482,0.14753,10.514192,0.189546,0.104896,0.159653
2024-01-01 00:00:14.350,0.07277,0.021352,10.777945,0.016435,0.166905,0.060032
2024-01-01 00:00:14.360,0.110569,0.03006,10.507235,-0.104611,0.198739,0.042388
2024-01-01 00:00:14.370,0.166749,-0.132709,10.383757,0.147965,0.061103,0.029987
2024-01-01 00:00:14.380,0.168637,-0.050296,9.873358,-0.122411,0.160948,0.039852
2024-01-01 00:00:14.390,0.313676,-0.035275,9.534627,0.171718,0.115693,-0.078418
2024-01-01 00:00:14.400,0.240004,0.074335,9.127673,-0.113788,0.220117,-0.053183
2024-01-01 00:00:14.410,0.163869,-0.039406,8.944067,-0.050317,0.012004,-0.077371
2024-01-01 00:00:14.420,0.056716,-0.01701,9.046726,-0.046766,0.107321,-0.06457
2024-01-01 00:00:14.430,-0.104696,-0.026937,8.369984,-0.118941,0.067914,0.038002
2024-01-01 00:00:14.440,0.130796,-0.20124,8.763468,-0.181552,0.078905,-0.077972
2024-01-01 00:00:14.450,0.326725,-0.206695,8.984865,-0.074944,-0.023106,-0.111626
2024-01-01 00:00:14.460,-0.074212,-0.333981,9.674448,-0.00116,-0.034378,-0.070017
2024-01-01 00:00:14.470,0.172478,-0.105509,9.353282,-0.183357,0.034418,0.008432
2024-01-01 00:00:14.480,-0.039501,-0.13878,10.101669,-0.150671,-0.069258,-0.02024
2024-01-01 00:00:14.490,-0.102653,-0.180513,10.235139,-0.208933,-0.128064,-0.044173
2024-01-01 00:00:14.500,0.134956,-0.175623,10.594469,-0.215538,-0.087776,0.083118
2024-01-01 00:00:14.510,0.014063,-0.210429,10.498573,-0.176872,-0.112984,0.035774
2024-01-01 00:00:14.520,-0.173162,-0.119274,10.608753,-0.156783,0.016442,0.032709
2024-01-01 00:00:14.530,-0.07712,-0.103367,11.019803,-0.14359,-0.137545,0.144103
2024-01-01 00:00:14.540,-0.257418,-0.13371,10.75666,-0.103532,-0.181826,0.071774
2024-01-01 00:00:14.550,-0.044684,-0.10095,10.997492,-0.015013,-0.134759,0.09131
2024-01-01 00:00:14.560,0.005138,-0.082158,10.674574,-0.033935,-0.237745,0.148563
2024-01-01 00:00:14.570,-0.28574,-0.200215,10.044619,-0.076559,-0.190457,-0.048689
2024-01-01 00:00:14.580,-0.024121,0.134252,9.806709,0.054266,-0.1764,-0.034186
2024-01-01 00:00:14.590,-0.232843,0.082133,9.774221,-0.013259,-0.052492,0.018668
2024-01-01 00:00:14.600,-0.168823,0.181959,9.4057,0.104965,-0.111079,-0.000948
2024-01-01 00:00:14.610,-0.072677,-0.08906,9.521402,0.054641,-0.078906,-0.026706
2024-01-01 00:00:14.620,-0.125601,0.099124,9.075535,-0.015435,-0.042727,-0.103096
2024-01-01 00:00:14.630,-0.321192,0.113466,8.683379,0.210411,-0.137315,0.006613
2024-01-01 00:00:14.640,-0.171688,0.021229,8.499599,0.120836,-0.067162,-0.056281
2024-01-01 00:00:14.650,-0.16267,0.202087,8.78542,0.28098,-0.039141,-0.138769
2024-01-01 00:00:14.660,-0.050284,0.097724,8.945927,0.200542,-0.151929,-0.065886
2024-01-01 00:00:14.670,0.027858,0.043944,9.395431,0.178216,-0.12088,-0.093121
2024-01-01 00:00:14.680,0.201909,0.1057,9.580921,0.053877,-0.003956,-0.097437
2024-01-01 00:00:14.690,0.153563,0.027891,9.729343,0.248622,-0.040289,-0.052707
2024-01-01 00:00:14.700,-0.003532,0.119801,10.237057,0.204408,-0.057286,0.087039
2024-01-01 00:00:14.710,0.070921,0.075528,10.196328,0.192815,0.073906,0.126054
2024-01-01 00:00:14.720,0.234894,0.050559,10.828255,0.033252,0.090201,0.039253
2024-01-01 00:00:14.730,0.094796,0.125196,11.037125,0.067768,0.056379,0.122781
2024-01-01 00:00:14.740,-0.100323,0.228023,10.481913,0.187244,0.190012,0.039166
2024-01-01 00:00:14.750,0.109922,0.205382,10.812057,0.11968,0.064308,0.064805
2024-01-01 00:00:14.760,0.116779,0.105198,10.391941,0.098715,0.131967,0.095716
2024-01-01 00:00:14.770,0.207261,0.189519,10.41009,0.038824,0.048486,0.088236
2024-01-01 00:00:14.780,0.107822,-0.098925,9.90271,0.107002,0.128988,0.002152
2024-01-01 00:00:14.790,0.086293,-0.008731,10.159563,-0.05932,0.093885,0.087933
2024-01-01 00:00:14.800,0.136617,0.012213,9.802523,-0.023833,0.234935,-0.037114
2024-01-01 00:00:14.810,0.054876,-0.031764,9.164057,0.005877,0.095346,-0.074075
2024-01-01 00:00:14.820,0.363514,0.13387,9.109625,-0.104231,-0.002057,-0.0594
2024-01-01 00:00:14.830,0.249368,-0.307276,8.771982,-0.060459,0.092972,-0.070559
2024-01-01 00:00:14.840,-0.069113,-0.191979,8.568194,-0.110773,-0.045591,-0.067198
2024-01-01 00:00:14.850,0.106126,0.073372,8.721976,-0.16603,-0.120081,-0.139893
2024-01-01 00:00:14.860,0.235293,-0.129244,8.98323,-0.207038,0.065202,0.008034
2024-01-01 00:00:14.870,0.149005,-0.176387,9.357026,-0.137781,0.036355,-0.157429
2024-01-01 00:00:14.880,0.066218,-0.190562,9.665673,-0.216682,0.125829,-0.039612
2024-01-01 00:00:14.890,0.005978,-0.044387,9.568409,-0.022684,-0.003008,-0.170727
2024-01-01 00:00:14.900,-0.107754,-0.018794,9.824725,-0.203951,-0.129214,0.040076
2024-01-01 00:00:14.910,-0.200694,-0.08261,10.070453,-0.052385,0.03854,0.044231
2024-01-01 00:00:14.920,-0.070649,-0.169164,10.706716,-0.105128,0.075993,0.05219
2024-01-01 00:00:14.930,-0.074701,-0.140389,10.384768,-0.134119,-0.044483,0.091961
