timestamp,acc_x,acc_y,acc_z,gyro_x,gyro_y,gyro_z
2024-01-01 00:00:00.000,0.195581,-0.600959,9.108129,0.191351,0.234963,-0.021513
2024-01-01 00:00:00.010,-0.054442,-0.271021,9.412514,0.268353,-0.375796,-0.004898
2024-01-01 00:00:00.020,0.255027,-0.130286,9.216502,0.124672,-0.065559,0.009644
2024-01-01 00:00:00.030,0.599693,0.594622,9.464763,-0.485624,-0.008332,0.142029
2024-01-01 00:00:00.040,-0.092198,0.175314,9.675085,-0.038856,0.003182,-0.112083
2024-01-01 00:00:00.050,-0.092191,-0.420677,10.337407,-0.288927,0.036099,-0.126952
2024-01-01 00:00:00.060,0.621815,0.153101,9.60767,-0.050651,0.122088,0.185493
2024-01-01 00:00:00.070,0.302177,-0.487401,8.811056,0.245001,-0.007081,-0.069397
2024-01-01 00:00:00.080,-0.184856,0.341048,10.528243,0.076288,-0.073612,-0.189455
2024-01-01 00:00:00.090,0.213633,-0.148404,9.282633,0.287023,-0.081518,-0.072769
2024-01-01 00:00:00.100,-0.182471,-0.029495,9.773006,0.085438,-0.122303,-0.049508
2024-01-01 00:00:00.110,-0.183381,0.417626,10.091318,-0.324581,0.157509,0.233244
2024-01-01 00:00:00.120,0.095273,-0.405457,9.935755,-0.630212,-0.129306,0.138724
2024-01-01 00:00:00.130,-0.753354,-0.440092,10.499333,0.037202,0.169354,0.172128
2024-01-01 00:00:00.140,-0.679186,-0.183834,10.111772,-0.053482,0.0038,0.122996
2024-01-01 00:00:00.150,-0.221401,0.327089,9.267375,-0.244236,-0.104251,0.141937
2024-01-01 00:00:00.160,-0.398802,-0.478594,11.182494,-0.425157,0.123681,-0.103212
2024-01-01 00:00:00.170,0.123735,-0.892129,9.93243,-0.183686,-0.145491,-0.02979
2024-01-01 00:00:00.180,-0.357534,-0.142115,9.717176,-0.048623,0.127637,-0.148487
2024-01-01 00:00:00.190,-0.556095,0.173798,10.417273,0.166469,0.042545,-0.031573
2024-01-01 00:00:00.200,0.577099,0.378082,9.967154,0.047158,-0.119265,0.102616
2024-01-01 00:00:00.210,-0.088899,-0.145896,10.061514,0.402017,0.105727,0.020187
2024-01-01 00:00:00.220,0.026589,-0.129599,11.380076,-0.258901,0.109318,0.196722
2024-01-01 00:00:00.230,-0.560995,0.363479,9.636674,0.220265,0.231504,-0.171212
2024-01-01 00:00:00.240,-0.214351,-0.588969,9.609811,0.011825,0.193229,0.075036
2024-01-01 00:00:00.250,0.043676,-0.122384,9.883444,0.173667,0.098255,-0.187245
2024-01-01 00:00:00.260,-0.453204,0.059984,10.485055,-0.109129,-0.225518,0.014126
2024-01-01 00:00:00.270,0.147931,0.141504,8.860884,0.26792,0.489717,0.11105
2024-01-01 00:00:00.280,-0.236501,-0.160589,8.5717,0.073806,-0.280723,-0.032175
2024-01-01 00:00:00.290,-0.114854,0.010849,9.440117,-0.169861,0.189853,0.082669
2024-01-01 00:00:00.300,-0.236922,-0.783823,8.780629,-0.003006,0.086257,-0.14396
2024-01-01 00:00:00.310,0.729335,-0.207348,9.542356,-0.059889,-0.234828,-0.249553
2024-01-01 00:00:00.320,-0.005315,0.142855,10.126575,0.122295,-0.02486,0.083554
2024-01-01 00:00:00.330,-0.416474,-0.309423,9.248828,-0.294944,-0.015751,0.261602
2024-01-01 00:00:00.340,0.323877,0.01858,8.911099,-0.007338,0.261117,-0.149407
2024-01-01 00:00:00.350,-0.480707,0.140765,9.853682,0.098827,-0.142662,0.183329
2024-01-01 00:00:00.360,0.08224,-0.107903,10.353402,0.008256,-0.052389,0.006514
2024-01-01 00:00:00.370,-0.77162,0.053696,8.742167,0.336735,-0.467214,-0.200354
2024-01-01 00:00:00.380,-0.522973,-0.303261,10.326746,0.193506,0.346953,-0.169726
2024-01-01 00:00:00.390,0.077514,-0.065083,10.324903,-0.00187,-0.214094,0.002368
2024-01-01 00:00:00.400,0.290771,0.192218,10.411074,0.054172,0.065382,-0.060669
2024-01-01 00:00:00.410,0.067476,0.049446,10.577643,0.073916,-0.020282,-0.196937
2024-01-01 00:00:00.420,-0.045537,-0.184757,11.197269,0.100825,-0.0196,-0.254106
2024-01-01 00:00:00.430,-0.11856,0.070628,9.585662,-0.456414,0.161972,-0.127008
2024-01-01 00:00:00.440,-0.582168,0.225102,9.87903,-0.075382,0.334252,0.029071
2024-01-01 00:00:00.450,-0.283439,-0.645732,9.547644,-0.37111,0.050299,-0.00096
2024-01-01 00:00:00.460,-0.181377,0.365108,9.811245,0.31957,0.131016,-0.075186
2024-01-01 00:00:00.470,0.416242,-0.10592,10.77571,-0.015212,0.065778,0.030283
2024-01-01 00:00:00.480,1.5353,0.134029,12.812641,-0.048335,0.203506,0.156004
2024-01-01 00:00:00.490,0.705803,0.377133,13.117539,0.224199,-0.092583,0.059119
2024-01-01 00:00:00.500,1.527608,-0.432077,14.527624,0.105581,0.215078,-0.018196
2024-01-01 00:00:00.510,1.248374,-0.223474,14.302623,-0.282159,0.2221,0.139211
2024-01-01 00:00:00.520,1.133462,-0.090893,13.431227,-0.017726,0.216507,-0.143978
2024-01-01 00:00:00.530,0.240848,-0.246882,10.348273,-0.083792,-0.13203,-0.033738
2024-01-01 00:00:00.540,0.405956,0.546505,10.024966,-0.436133,-0.033668,-0.030163
2024-01-01 00:00:00.550,0.366692,-0.269883,10.755173,-0.172569,0.047893,-0.185543
2024-01-01 00:00:00.560,-0.330442,-0.174997,9.856941,-0.045885,-0.274168,-0.062981
2024-01-01 00:00:00.570,-0.121752,0.064383,10.456148,-0.028738,0.318984,-0.311244
2024-01-01 00:00:00.580,0.130435,-0.378677,11.474468,-0.370558,-0.002455,0.286827
2024-01-01 00:00:00.590,0.384121,-0.124639,10.186802,0.287916,0.056786,-0.140612
2024-01-01 00:00:00.600,-0.188675,0.099998,9.841077,-0.025526,-0.115401,0.237917
2024-01-01 00:00:00.610,-0.073103,-0.104851,10.265142,0.009388,-0.265376,0.005713
2024-01-01 00:00:00.620,-0.435619,-0.029417,9.579873,0.10016,-0.120806,0.08473
2024-01-01 00:00:00.630,-0.471006,-0.16674,11.31442,-0.197019,0.043841,-0.07332
2024-01-01 00:00:00.640,0.319932,-0.477058,9.923445,0.114089,0.134686,0.031189
2024-01-01 00:00:00.650,0.53402,0.101302,9.638052,-0.091769,0.032358,0.097573
2024-01-01 00:00:00.660,-0.028354,0.552804,9.283516,-0.224146,0.069345,0.099683
2024-01-01 00:00:00.670,0.395141,0.005797,10.501249,0.143362,-0.067405,0.116216
2024-01-01 00:00:00.680,0.142394,0.070958,10.356328,0.372918,0.09925,-0.05525
2024-01-01 00:00:00.690,-0.254016,0.218208,9.496667,0.181207,0.296567,-0.072054
2024-01-01 00:00:00.700,0.1423,-0.399839,10.173164,0.230744,0.140958,-0.239126
2024-01-01 00:00:00.710,0.605602,0.536292,8.85961,-0.130158,0.161908,0.078483
2024-01-01 00:00:00.720,-0.014107,0.063734,9.926531,-0.399405,0.058803,0.162357
2024-01-01 00:00:00.730,0.616078,0.514035,10.095237,0.372534,-0.300631,0.242397
2024-01-01 00:00:00.740,-1.031525,-0.230905,10.885618,0.513629,-0.208933,0.045776
2024-01-01 00:00:00.750,0.323624,0.57269,9.324384,0.385702,0.090975,-0.114972
2024-01-01 00:00:00.760,0.034275,0.244174,9.004638,-0.083946,-0.002188,-0.254564
2024-01-01 00:00:00.770,-0.117734,0.174208,9.24588,-0.288659,0.087969,0.15625
2024-01-01 00:00:00.780,0.036131,0.073718,8.967962,-0.266421,0.335285,-0.269441
2024-01-01 00:00:00.790,-0.782605,-0.078287,10.652094,-0.420933,0.145207,-0.051091
2024-01-01 00:00:00.800,-0.086496,0.378167,10.785643,-0.026845,0.251777,-0.033646
2024-01-01 00:00:00.810,0.140613,0.044213,10.011736,0.401419,0.018936,-0.010418
2024-01-01 00:00:00.820,0.581921,-0.619627,10.579416,-0.035416,-0.161443,0.00537
2024-01-01 00:00:00.830,-0.204069,-0.351914,9.894394,0.075581,-0.011573,0.020722
2024-01-01 00:00:00.840,-0.318344,-0.058541,9.75008,0.343899,-0.16095,-0.362304
2024-01-01 00:00:00.850,-0.197567,0.09765,9.600186,-0.101024,0.311659,0.002198
2024-01-01 00:00:00.860,0.36044,-0.017825,9.614454,0.508883,0.158078,-0.334436
2024-01-01 00:00:00.870,0.129446,0.383976,8.834885,0.498024,0.104102,0.109833
2024-01-01 00:00:00.880,-0.208593,-0.614597,9.976481,-0.032778,0.247189,-0.083269
2024-01-01 00:00:00.890,0.202099,0.04523,9.78459,-0.144384,-0.404011,-0.323556
2024-01-01 00:00:00.900,0.038224,-0.572663,10.279577,0.17431,0.117628,-0.122131
2024-01-01 00:00:00.910,0.381404,0.239309,9.86892,-0.086881,-0.262129,-0.085511
2024-01-01 00:00:00.920,-0.276433,-0.029754,9.707497,-0.289139,-0.001451,0.178605
2024-01-01 00:00:00.930,-0.129017,0.132177,9.261148,0.32031,-0.062342,0.029496
2024-01-01 00:00:00.940,-0.154393,-0.272123,9.855457,0.304112,0.132347,0.051667
2024-01-01 00:00:00.950,-0.576259,0.403031,10.275089,0.038878,0.045637,0.177183
2024-01-01 00:00:00.960,0.116597,0.328143,9.089696,-0.315716,0.269023,-0.014422
2024-01-01 00:00:00.970,0.102791,0.183816,9.865108,-0.307382,-0.120379,0.113128
2024-01-01 00:00:00.980,0.002013,-0.040798,9.956817,0.026807,0.141823,0.102579
2024-01-01 00:00:00.990,-0.092369,0.182655,9.357619,-0.124968,0.032445,-0.19297
2024-01-01 00:00:01.000,-0.557302,-0.222671,9.439651,-0.085273,-0.327058,0.220948
2024-01-01 00:00:01.010,-0.165629,0.2695,9.955285,0.255491,-0.183723,-0.213045
2024-01-01 00:00:01.020,-0.134944,0.519586,9.095945,0.183295,-0.029976,0.137605
2024-01-01 00:00:01.030,-0.315897,0.337242,10.030452,0.344536,0.222458,-0.227561
2024-01-01 00:00:01.040,-0.063506,-0.229825,9.245927,-0.247656,0.092745,0.090186
2024-01-01 00:00:01.050,0.159095,0.113846,10.479598,-0.085798,-0.2335,0.279287
2024-01-01 00:00:01.060,0.742686,-0.40734,11.282831,0.189745,-0.028063,-0.031947
2024-01-01 00:00:01.070,0.06874,0.180303,9.267723,0.11202,0.403561,-0.038453
2024-01-01 00:00:01.080,0.10141,0.14194,10.146551,0.383095,0.022245,0.091566
2024-01-01 00:00:01.090,-0.029313,-0.588992,9.352153,0.105134,-0.065465,-0.049409
2024-01-01 00:00:01.100,-0.755516,-0.365962,10.465801,0.462027,0.098348,0.272742
2024-01-01 00:00:01.110,-0.01044,-0.089189,9.012887,0.135004,0.152679,0.028829
2024-01-01 00:00:01.120,0.023716,-0.094771,10.11277,0.265542,-0.091234,-0.048025
2024-01-01 00:00:01.130,0.969902,-0.380985,9.260017,-0.080879,0.100515,-0.081043
2024-01-01 00:00:01.140,-0.075742,0.122528,9.6796,0.003572,-0.065778,-0.139942
2024-01-01 00:00:01.150,0.118734,0.079214,9.160454,0.227736,0.143866,-0.094163
2024-01-01 00:00:01.160,-0.013668,-0.061195,10.328081,0.403245,0.033939,-0.052601
2024-01-01 00:00:01.170,-0.460167,-0.238074,9.282702,0.182309,0.096394,-0.073146
2024-01-01 00:00:01.180,0.449986,0.330343,10.157737,-0.020793,-0.151837,-0.098726
2024-01-01 00:00:01.190,0.296074,0.521453,9.593218,0.344334,-0.164257,0.314826
2024-01-01 00:00:01.200,0.311469,-0.152322,9.737882,-0.547995,0.189099,-0.154514
2024-01-01 00:00:01.210,-0.358071,-0.192833,9.903086,-0.355559,-0.015879,0.021995
2024-01-01 00:00:01.220,0.55235,0.15473,9.33005,0.170409,0.057007,0.088878
2024-01-01 00:00:01.230,-0.551979,-0.112779,9.942531,0.003527,-0.061279,0.094516
2024-01-01 00:00:01.240,0.231075,-0.04391,10.774111,0.151378,0.179745,-0.008791
2024-01-01 00:00:01.250,0.862492,0.232991,9.3198,0.016102,-0.121562,-0.036105
2024-01-01 00:00:01.260,-0.390024,-0.601447,10.54824,0.142736,-0.02712,0.067732
2024-01-01 00:00:01.270,-0.22298,0.415265,10.753802,-0.203601,0.157199,0.039978
2024-01-01 00:00:01.280,0.039238,0.022894,9.295822,0.142622,0.234594,-0.038844
2024-01-01 00:00:01.290,-0.198244,-0.12962,8.893316,0.248604,-0.104752,-0.234282
2024-01-01 00:00:01.300,-0.610574,-0.028109,10.000235,0.305138,0.391937,-0.070189
2024-01-01 00:00:01.310,0.026997,-0.011835,9.465133,0.503389,0.062648,-0.171983
2024-01-01 00:00:01.320,-0.418282,-0.545328,10.98722,0.061025,-0.208586,-0.100074
2024-01-01 00:00:01.330,0.186477,0.470906,9.831929,0.068478,0.07381,0.004983
2024-01-01 00:00:01.340,-0.362023,0.013018,9.304614,-0.380793,-0.0766,0.05381
2024-01-01 00:00:01.350,0.610287,0.139546,9.08729,-0.132853,0.086814,0.267068
2024-01-01 00:00:01.360,-0.308406,0.299738,10.49664,-0.048271,-0.008571,-0.080611
2024-01-01 00:00:01.370,-0.126812,-0.321666,9.450154,0.26258,0.014855,0.116194
2024-01-01 00:00:01.380,0.320322,0.149144,9.837612,-0.15275,-0.182319,0.045894
2024-01-01 00:00:01.390,-0.484653,-0.084307,10.412156,0.199085,0.198012,0.1944
2024-01-01 00:00:01.400,0.089562,0.266733,9.504917,-0.000405,-0.231225,0.086434
2024-01-01 00:00:01.410,0.514687,-0.670077,9.781065,-0.044292,-0.221753,-0.151272
2024-01-01 00:00:01.420,-0.632947,-0.031215,9.799562,0.062223,0.073472,-0.258457
2024-01-01 00:00:01.430,0.0727,-0.189889,10.240494,-0.097789,0.320569,0.046689
2024-01-01 00:00:01.440,0.102329,0.136163,10.182169,-0.107259,-0.070519,-0.079268
2024-01-01 00:00:01.450,0.307843,0.148064,9.671328,-0.426196,0.140194,-0.147047
2024-01-01 00:00:01.460,-0.487049,-0.222902,9.850099,-0.061989,0.214668,-0.190137
2024-01-01 00:00:01.470,-0.51993,-0.224335,9.575779,-0.119992,0.162937,0.024146
2024-01-01 00:00:01.480,1.605514,-0.03486,12.729104,-0.128995,-0.062242,0.226156
2024-01-01 00:00:01.490,1.516938,-0.282442,13.822289,0.104218,-0.218209,-0.061301
2024-01-01 00:00:01.500,1.498632,0.265225,14.852081,0.164658,-0.44151,0.088541
2024-01-01 00:00:01.510,1.536414,-0.1163,13.103257,0.058049,-0.052568,-0.01534
2024-01-01 00:00:01.520,1.13224,-0.915701,13.172991,0.248854,0.235617,-0.193407
2024-01-01 00:00:01.530,0.09145,-0.118069,9.261442,0.14389,-0.224833,0.110222
2024-01-01 00:00:01.540,0.115397,-0.327141,10.266493,-0.073764,0.140042,-0.164204
2024-01-01 00:00:01.550,-0.281276,-0.513852,10.092546,-0.115714,-0.190031,0.003244
2024-01-01 00:00:01.560,0.734649,-0.389789,9.710121,0.078206,0.021215,-0.051228
2024-01-01 00:00:01.570,0.186572,0.034464,9.231648,0.143442,0.141558,0.133962
2024-01-01 00:00:01.580,-0.469076,0.418522,9.868197,0.349461,-0.131899,-0.158723
2024-01-01 00:00:01.590,0.258518,0.098653,8.824288,0.297793,0.034097,0.05863
2024-01-01 00:00:01.600,-0.383781,-0.191049,9.900359,-0.135368,-0.083018,-0.12597
2024-01-01 00:00:01.610,0.309915,0.14361,10.35906,-0.025502,0.14103,-0.076666
2024-01-01 00:00:01.620,0.456197,-0.144613,9.021745,0.167754,0.047063,-0.54528
2024-01-01 00:00:01.630,-0.323144,-0.218799,8.844513,0.266999,0.011302,0.313815
2024-01-01 00:00:01.640,0.379329,-0.363624,10.805046,0.234742,0.31167,0.082584
2024-01-01 00:00:01.650,0.162532,-0.551826,9.424591,-0.015969,0.132461,-0.115102
2024-01-01 00:00:01.660,0.323686,-0.122826,10.525647,-0.313506,-0.13807,-0.168698
2024-01-01 00:00:01.670,0.746862,0.049787,9.712981,-0.249734,-0.017173,-0.074347
2024-01-01 00:00:01.680,-0.096622,-0.030436,9.707968,0.068158,-0.01518,0.107532
2024-01-01 00:00:01.690,-0.296784,-0.13103,10.0862,0.085556,0.016064,-0.283813
2024-01-01 00:00:01.700,-0.350246,-0.29791,9.253081,-0.27467,0.504902,-0.021238
2024-01-01 00:00:01.710,-0.321225,0.191598,9.893473,0.011142,0.07417,0.265596
2024-01-01 00:00:01.720,-0.030359,-0.414897,9.569662,0.157806,-0.407181,-0.170092
2024-01-01 00:00:01.730,0.134329,0.244449,8.978089,-0.287807,-0.10856,0.012058
2024-01-01 00:00:01.740,0.108947,-0.315698,10.022614,0.276249,-0.386474,0.330496
2024-01-01 00:00:01.750,0.325703,-0.237017,9.644116,-0.094383,-0.06596,0.094823
2024-01-01 00:00:01.760,0.005119,-0.462037,9.711074,0.314403,-0.397462,0.018889
2024-01-01 00:00:01.770,0.572329,-0.157942,9.047599,-0.133363,-0.174318,0.075995
2024-01-01 00:00:01.780,-0.104209,0.307223,10.812582,-0.256656,-0.304144,-0.06013
2024-01-01 00:00:01.790,1.071067,0.162423,10.36233,-0.114534,0.076832,0.194945
2024-01-01 00:00:01.800,0.246357,0.308203,10.417418,-0.023787,0.000108,-0.0599
2024-01-01 00:00:01.810,-0.337506,0.164475,9.61757,-0.09712,0.060592,-0.293877
2024-01-01 00:00:01.820,-0.421664,-0.347656,8.720615,-0.054,-0.02091,-0.058695
2024-01-01 00:00:01.830,0.189974,-0.104199,11.040338,0.083491,-0.27886,-0.14501
2024-01-01 00:00:01.840,-0.087988,-0.245763,9.771509,-0.042795,0.102704,-0.042179
2024-01-01 00:00:01.850,0.281138,0.419131,9.338256,-0.016528,0.384445,-0.038863
2024-01-01 00:00:01.860,0.186337,-0.376988,10.072585,-0.427307,0.081843,0.179613
2024-01-01 00:00:01.870,-0.028676,0.281515,10.545286,0.097925,-0.085185,0.104294
2024-01-01 00:00:01.880,-0.333425,0.28128,9.795478,-0.022301,-0.285613,0.03949
2024-01-01 00:00:01.890,-0.596471,0.57633,10.615502,0.402573,-0.181613,-0.000442
2024-01-01 00:00:01.900,-0.175815,-0.129051,10.49229,-0.234891,0.090608,-0.158829
2024-01-01 00:00:01.910,1.737207,0.224381,12.98188,-0.452074,0.214624,-0.327176
2024-01-01 00:00:01.920,1.484299,0.71872,13.235512,0.154517,0.052173,0.016974
2024-01-01 00:00:01.930,0.90949,-0.194557,14.263248,0.086632,0.159977,0.119196
2024-01-01 00:00:01.940,1.46819,-0.483538,11.951054,-0.252108,0.141536,-0.01625
2024-01-01 00:00:01.950,1.551719,-0.592203,13.565843,-0.382437,0.101307,-0.080228
2024-01-01 00:00:01.960,-0.348019,0.224504,8.908576,0.384349,-0.131695,0.069675
2024-01-01 00:00:01.970,0.060529,-0.593192,9.509771,0.353528,0.034785,-0.0125
2024-01-01 00:00:01.980,0.02292,-0.117281,9.621743,-0.621864,-0.169676,0.252862
2024-01-01 00:00:01.990,-0.450045,0.137754,9.584306,-0.114556,0.003486,0.184909
2024-01-01 00:00:02.000,0.140879,0.05833,9.462075,0.416048,0.066173,0.143926
2024-01-01 00:00:02.010,0.220809,0.134015,9.1188,-0.119016,0.335757,0.11366
2024-01-01 00:00:02.020,0.426451,0.070021,11.253904,-0.122653,-0.261946,-0.193525
2024-01-01 00:00:02.030,0.414935,0.402843,10.986501,-0.07069,0.096302,0.099449
2024-01-01 00:00:02.040,-0.542457,-0.29998,9.077899,-0.280224,0.296247,0.056449
2024-01-01 00:00:02.050,-0.369269,-0.213253,10.806734,-0.426194,0.15177,0.090964
2024-01-01 00:00:02.060,0.202795,-0.243388,9.558337,0.263137,0.166589,0.073891
2024-01-01 00:00:02.070,0.202303,0.26151,9.891388,-0.460734,0.117539,0.067914
2024-01-01 00:00:02.080,0.2028,0.283626,9.770137,0.061818,0.259667,0.40513
2024-01-01 00:00:02.090,1.517013,0.142136,9.394358,0.221645,-0.217496,-0.011428
2024-01-01 00:00:02.100,0.224788,0.372801,10.429827,-0.362807,-0.277185,0.140451
2024-01-01 00:00:02.110,0.447129,-0.371083,9.889309,-0.231067,-0.001267,-0.070648
2024-01-01 00:00:02.120,0.375638,0.525176,9.509773,0.303295,-0.432232,0.118596
2024-01-01 00:00:02.130,0.256485,0.47982,8.988109,0.133223,0.246129,0.140898
2024-01-01 00:00:02.140,-0.124137,0.231721,9.247035,-0.154321,0.244143,0.054664
2024-01-01 00:00:02.150,0.298844,0.561267,8.775931,0.300562,-0.08667,0.250387
2024-01-01 00:00:02.160,-0.3043,-0.521836,9.817701,0.301634,-0.074154,-0.132641
2024-01-01 00:00:02.170,-0.093247,-0.165201,9.056101,0.067263,-0.014469,-0.073083
2024-01-01 00:00:02.180,-0.191112,-0.231621,9.642697,-0.22504,0.010404,0.031857
2024-01-01 00:00:02.190,0.032238,0.227266,10.673164,-0.103362,0.025435,0.132121
2024-01-01 00:00:02.200,0.911397,-0.330794,10.565559,0.071597,0.111646,0.026914
2024-01-01 00:00:02.210,-0.735236,0.238611,9.789666,-0.047149,-0.034525,0.192864
2024-01-01 00:00:02.220,0.270215,0.431719,9.755137,0.234739,0.188639,-0.099253
2024-01-01 00:00:02.230,-0.635007,0.218989,10.994321,-0.382444,0.08919,-0.171087
2024-01-01 00:00:02.240,-0.185823,0.089382,10.138076,-0.373566,-0.121393,0.046219
2024-01-01 00:00:02.250,0.428774,-0.31118,9.603482,0.045218,0.267023,-0.011577
2024-01-01 00:00:02.260,0.02531,-0.266758,8.911609,-0.122886,-0.271651,0.08143
2024-01-01 00:00:02.270,-0.424362,0.39363,10.05814,-0.156762,-0.018433,-0.00411
2024-01-01 00:00:02.280,-0.281651,0.245495,10.332474,-0.442014,0.193383,-0.051003
2024-01-01 00:00:02.290,0.267592,-0.012291,9.41206,0.004886,-0.144615,-0.011241
2024-01-01 00:00:02.300,-0.287582,-0.131642,9.993458,-0.013189,0.061911,0.004327
2024-01-01 00:00:02.310,0.085231,-0.638129,9.580949,0.16337,0.108668,-0.045747
2024-01-01 00:00:02.320,0.017944,-0.337319,9.69406,0.017227,-0.172105,-0.03047
2024-01-01 00:00:02.330,-0.256568,0.602097,8.242672,-0.033151,-0.014496,-0.060539
2024-01-01 00:00:02.340,0.844178,-0.403344,9.670278,0.29425,-0.031301,0.1285
2024-01-01 00:00:02.350,0.249606,0.059686,10.420703,-0.328117,-0.110348,0.029103
2024-01-01 00:00:02.360,-0.7974,0.317345,9.412216,0.134097,0.460335,0.338513
2024-01-01 00:00:02.370,0.073416,-0.395301,9.843092,-0.417787,-0.152621,0.024106
2024-01-01 00:00:02.380,-0.260578,0.058184,9.333751,-0.20959,0.200986,-0.082629
2024-01-01 00:00:02.390,0.335646,0.295443,10.037078,-0.303164,-0.07856,0.400601
2024-01-01 00:00:02.400,-0.312055,0.003937,9.67359,0.195486,-0.217327,0.062044
2024-01-01 00:00:02.410,-0.045177,0.903547,9.218278,-0.016353,0.020563,0.148519
2024-01-01 00:00:02.420,0.198839,-0.525609,10.649507,-0.003376,0.129819,0.088815
2024-01-01 00:00:02.430,0.340891,0.333499,10.395227,-0.276683,0.184102,0.093452
2024-01-01 00:00:02.440,-0.472617,-0.054433,9.428909,-0.074923,0.312453,0.080348
2024-01-01 00:00:02.450,-0.13171,0.243155,10.123607,-0.190866,0.589049,-0.165313
2024-01-01 00:00:02.460,-0.18701,0.139012,10.14857,0.095864,0.050103,0.055129
2024-01-01 00:00:02.470,-0.257248,-0.230944,10.21465,-0.247773,-0.132618,-0.198729
2024-01-01 00:00:02.480,0.695148,0.072134,8.742619,0.332449,0.090575,-0.026154
2024-01-01 00:00:02.490,0.159462,-0.585239,10.444162,-0.418895,-0.053243,-0.108843
2024-01-01 00:00:02.500,-0.496473,0.190023,9.45109,-0.20163,0.185193,0.053621
2024-01-01 00:00:02.510,0.361408,0.09392,9.584568,0.4193,-0.259433,0.050119
2024-01-01 00:00:02.520,0.835599,0.201178,11.471866,-0.108785,0.473667,0.072172
2024-01-01 00:00:02.530,0.406533,0.333307,10.00018,-0.32872,0.17121,0.043094
2024-01-01 00:00:02.540,-0.598252,0.1158,9.566617,0.054768,-0.336801,-0.091024
2024-01-01 00:00:02.550,-0.190667,0.046648,8.420665,-0.118848,-0.141806,-0.039151
2024-01-01 00:00:02.560,0.498846,-0.277537,10.685551,-0.208968,0.163216,0.138059
2024-01-01 00:00:02.570,-0.278645,-0.22435,8.962518,-0.273968,0.235269,0.160179
2024-01-01 00:00:02.580,0.174754,0.373821,9.177833,0.692093,-0.254448,-0.172017
2024-01-01 00:00:02.590,0.305012,0.452446,9.601248,-0.062888,0.142605,-0.229639
2024-01-01 00:00:02.600,-0.364979,-0.075005,10.702339,-0.481392,-0.389468,-0.109033
2024-01-01 00:00:02.610,-0.023438,0.014491,10.297141,0.373427,-0.017867,0.156781
2024-01-01 00:00:02.620,-1.276249,-0.284954,9.710562,0.152768,0.222409,0.182233
2024-01-01 00:00:02.630,-0.403353,0.369418,10.004224,-0.191617,-0.110303,-0.138707
2024-01-01 00:00:02.640,-0.099449,0.209606,9.431757,-0.23328,-0.301384,0.046096
2024-01-01 00:00:02.650,-0.491315,0.611483,9.897982,0.168368,0.029243,0.275165
2024-01-01 00:00:02.660,0.642762,-0.276672,9.856202,-0.06173,-0.120944,0.062297
2024-01-01 00:00:02.670,-0.563118,-0.119072,10.420325,-0.481494,0.125912,0.213225
2024-01-01 00:00:02.680,-0.173268,0.072905,10.419322,0.44681,-0.177065,0.149809
2024-01-01 00:00:02.690,0.051479,0.203644,10.121206,-0.108498,-0.154527,-0.13653
2024-01-01 00:00:02.700,0.567501,-0.067935,9.581721,0.373893,-0.4042,-0.028497
2024-01-01 00:00:02.710,-0.565371,-0.274983,10.277348,0.319609,0.033989,0.005213
2024-01-01 00:00:02.720,0.457996,0.277643,9.75206,-0.250252,-0.032181,0.01562
2024-01-01 00:00:02.730,0.004029,0.227158,9.128394,0.258297,-0.237677,0.137449
2024-01-01 00:00:02.740,-0.386469,-0.288626,9.555929,-0.162861,0.03876,0.061303
2024-01-01 00:00:02.750,0.181953,0.426964,9.863252,-0.466675,0.205414,-0.44043
2024-01-01 00:00:02.760,0.07838,0.368613,10.383436,-0.10615,-0.043114,-0.196926
2024-01-01 00:00:02.770,-0.236335,0.042303,9.694377,0.099409,0.053633,-0.328107
2024-01-01 00:00:02.780,0.027485,0.025073,9.048205,-0.115684,0.054662,0.026305
2024-01-01 00:00:02.790,-0.151717,0.174528,9.845747,-0.076762,-0.240866,0.036073
2024-01-01 00:00:02.800,0.044697,-0.271436,9.881477,0.285892,0.411317,0.042484
2024-01-01 00:00:02.810,0.260714,0.00946,9.927078,0.026623,-0.09417,-0.143839
2024-01-01 00:00:02.820,0.624494,-0.678001,10.389519,-0.210825,0.131223,0.101122
2024-01-01 00:00:02.830,-0.48739,0.276084,10.451922,0.175508,0.153843,0.107439
2024-01-01 00:00:02.840,0.839882,-0.49187,9.435647,0.049419,-0.027919,-0.188272
2024-01-01 00:00:02.850,-0.768635,0.473577,9.42183,-0.630401,0.121359,-0.219906
2024-01-01 00:00:02.860,-0.059765,-0.103988,9.154675,0.107088,0.049164,-2e-05
2024-01-01 00:00:02.870,0.23165,-0.066675,10.250254,0.097957,-0.283528,0.268767
2024-01-01 00:00:02.880,0.110641,-0.197736,10.722757,0.00503,-0.066455,0.254961
2024-01-01 00:00:02.890,-0.245188,-0.090732,9.611498,0.222925,-0.12251,0.084511
2024-01-01 00:00:02.900,-0.081948,0.446837,9.657899,-0.168098,-0.092349,-0.1095
2024-01-01 00:00:02.910,-0.194119,-0.78366,10.734073,0.084125,-0.260801,0.133026
2024-01-01 00:00:02.920,1.167938,0.402244,13.978501,-0.39174,0.225287,-0.067864
2024-01-01 00:00:02.930,1.734531,0.106477,13.934828,0.101773,0.320399,-0.115126
2024-01-01 00:00:02.940,1.540575,-0.380212,12.909723,0.488265,0.195601,-0.321595
2024-01-01 00:00:02.950,1.127167,-0.338723,14.087599,-0.248714,0.254106,0.015357
2024-01-01 00:00:02.960,1.754217,0.528064,13.074644,-0.189951,-0.068927,-0.09448
2024-01-01 00:00:02.970,0.120999,-0.297835,9.095567,-0.177504,-0.127251,0.014465
2024-01-01 00:00:02.980,0.320064,-0.363305,9.591534,0.0325,-0.155717,-0.344904
2024-01-01 00:00:02.990,0.247916,0.358254,9.440951,-0.265759,0.128813,0.025474
2024-01-01 00:00:03.000,-0.326417,0.106644,9.670392,0.105312,0.045413,-0.364668
2024-01-01 00:00:03.010,-0.220571,-0.295447,8.902182,0.21171,-0.015444,0.163191
2024-01-01 00:00:03.020,0.294247,0.068237,10.414054,0.133587,0.25903,0.078284
2024-01-01 00:00:03.030,0.240333,-0.323112,10.520442,-0.442104,0.080988,-0.0418
2024-01-01 00:00:03.040,-0.00823,0.346759,8.583174,0.248792,-0.167732,0.084408
2024-01-01 00:00:03.050,0.046198,0.334332,10.426428,0.234342,-0.136182,-0.146711
2024-01-01 00:00:03.060,0.503081,0.167582,9.299367,0.20754,0.136399,0.010856
2024-01-01 00:00:03.070,-0.232931,0.113923,10.349895,0.093211,0.208347,0.119216
2024-01-01 00:00:03.080,0.21542,0.554774,9.766879,0.055047,0.110336,-0.464143
2024-01-01 00:00:03.090,-0.079613,-9.9e-05,9.828129,0.258097,0.379378,-0.067084
2024-01-01 00:00:03.100,-0.085712,-0.37229,9.693388,0.480878,0.327001,-0.003397
2024-01-01 00:00:03.110,0.432643,0.141584,10.573641,-0.23826,0.088207,-0.029444
2024-01-01 00:00:03.120,0.325008,0.657105,9.02906,0.269531,-0.167716,0.218565
2024-01-01 00:00:03.130,0.320319,-0.319649,10.192939,-0.021554,-0.261998,-0.168585
2024-01-01 00:00:03.140,0.514032,-0.113861,10.503838,-0.032418,-0.077476,-0.093174
2024-01-01 00:00:03.150,0.00827,0.131181,10.261294,-0.384133,0.150643,-0.28738
2024-01-01 00:00:03.160,0.268519,-0.01698,11.27456,-0.071197,0.365329,0.226543
2024-01-01 00:00:03.170,-0.122168,-0.309426,9.476764,-0.249316,0.083489,-0.036944
2024-01-01 00:00:03.180,0.127641,0.353385,10.413102,-0.115964,0.233745,-0.065761
2024-01-01 00:00:03.190,-0.051244,0.730813,9.743163,-0.274547,-0.049061,-0.007872
2024-01-01 00:00:03.200,0.038192,0.061781,10.587046,-0.112227,0.124554,0.095435
2024-01-01 00:00:03.210,0.234343,-0.284782,9.805156,-0.101528,0.164671,0.052105
2024-01-01 00:00:03.220,-0.322174,-0.487923,9.565638,0.024189,-0.395919,0.397183
2024-01-01 00:00:03.230,0.823877,0.081262,10.632825,-0.403687,-0.082688,0.06809
2024-01-01 00:00:03.240,-0.396119,0.347721,9.500316,-0.36138,0.18994,-0.069787
2024-01-01 00:00:03.250,-0.478087,0.149678,8.919983,0.090479,0.054894,-0.084204
2024-01-01 00:00:03.260,0.456006,-0.000757,9.484386,-0.19936,-0.239303,-0.058914
2024-01-01 00:00:03.270,0.311717,-0.185621,10.199991,0.268632,-0.486024,-0.225276
2024-01-01 00:00:03.280,0.245747,-0.344032,10.686984,0.056317,-0.073156,0.00598
2024-01-01 00:00:03.290,0.247411,0.262947,9.880012,0.151691,-0.014317,0.11752
2024-01-01 00:00:03.300,-0.004822,0.287838,10.640464,0.352673,-0.176785,-0.092005
2024-01-01 00:00:03.310,-0.353294,-0.486905,8.95435,-0.077428,0.028617,-0.121107
2024-01-01 00:00:03.320,0.029848,0.500799,9.530744,-0.143622,0.101277,0.227392
2024-01-01 00:00:03.330,-0.266632,0.180832,9.628198,0.217926,0.134137,-0.213972
2024-01-01 00:00:03.340,0.383953,0.440872,9.737828,0.127378,-0.471184,-0.310173
2024-01-01 00:00:03.350,1.342096,-0.42277,13.712979,-0.046833,-0.262857,-0.172935
2024-01-01 00:00:03.360,1.07496,-0.430235,14.095274,0.347864,-0.060925,-0.231065
2024-01-01 00:00:03.370,1.273454,-0.046925,13.379772,-0.053061,0.114435,0.057934
2024-01-01 00:00:03.380,1.562592,0.158377,13.747588,0.008193,0.097847,-0.054106
2024-01-01 00:00:03.390,1.178033,0.565854,13.631573,0.005306,0.094374,-0.032953
2024-01-01 00:00:03.400,-0.323749,0.222415,9.226689,-0.233648,-0.076684,0.17294
2024-01-01 00:00:03.410,0.095952,-0.076445,9.73839,0.019396,-0.065527,-0.1037
2024-01-01 00:00:03.420,0.096456,-0.323306,9.719494,0.34919,-0.145666,0.116263
2024-01-01 00:00:03.430,-0.199609,0.38745,9.705999,0.111242,0.153639,0.226698
2024-01-01 00:00:03.440,-0.185471,-0.303882,9.830008,0.007766,-0.184098,-0.068349
2024-01-01 00:00:03.450,0.09137,0.512968,9.857674,-0.040442,0.170007,0.110553
2024-01-01 00:00:03.460,-0.570183,-0.089581,9.537654,0.082717,0.041571,-0.036273
2024-01-01 00:00:03.470,-0.554189,0.501033,10.61181,0.187442,-0.009009,0.138615
2024-01-01 00:00:03.480,-0.282887,0.213863,9.073227,0.15231,-0.131342,-0.235723
2024-01-01 00:00:03.490,-0.084045,-0.043154,9.355789,-0.082966,-0.271108,-0.246827
2024-01-01 00:00:03.500,0.12242,-0.16361,11.561377,0.081195,-0.129531,-0.05869
2024-01-01 00:00:03.510,0.580922,-0.107386,9.156065,0.119985,-0.066001,-0.133339
2024-01-01 00:00:03.520,0.337703,0.13492,8.957135,-0.251799,-0.473805,-0.077506
2024-01-01 00:00:03.530,-0.062976,0.024304,10.27272,0.042058,-0.039471,-0.032929
2024-01-01 00:00:03.540,-0.007488,-0.187051,8.501414,-0.540326,0.184871,0.108002
2024-01-01 00:00:03.550,-0.394746,-0.052174,9.661777,0.120633,0.113444,-0.061149
2024-01-01 00:00:03.560,-0.00729,0.024752,11.16187,0.165086,-0.099241,-0.123579
2024-01-01 00:00:03.570,-0.113659,-0.670551,8.83669,0.186887,0.009387,-0.052727
2024-01-01 00:00:03.580,0.12707,0.144323,8.561362,-0.098762,-0.111233,-0.115372
2024-01-01 00:00:03.590,-0.325722,-0.308612,8.865516,0.077262,0.029752,-0.140101
2024-01-01 00:00:03.600,0.204493,-0.3633,10.375967,0.355988,0.308022,-0.241953
2024-01-01 00:00:03.610,0.603516,-0.531513,10.518609,0.353442,0.1937,0.010422
2024-01-01 00:00:03.620,-0.042824,-0.565076,9.487069,-0.007293,0.104159,-0.085306
2024-01-01 00:00:03.630,0.158174,-0.426966,10.240424,0.03483,-0.098577,0.144942
2024-01-01 00:00:03.640,0.271744,-0.223342,10.685861,0.277728,0.149988,-0.217109
2024-01-01 00:00:03.650,-0.157981,0.615277,10.936028,-0.375201,-0.337375,-0.081313
2024-01-01 00:00:03.660,0.088236,-0.165652,9.654809,-0.080769,-0.050471,0.271936
2024-01-01 00:00:03.670,0.004958,0.055991,8.360073,0.333893,0.116742,-0.140941
2024-01-01 00:00:03.680,0.03846,0.126152,9.292846,0.2438,0.148084,-0.03548
2024-01-01 00:00:03.690,-0.304373,0.041286,9.541113,0.092316,0.133977,-0.182377
2024-01-01 00:00:03.700,0.009651,-0.024395,9.646869,-0.376458,0.058966,-0.202264
2024-01-01 00:00:03.710,0.196087,-0.376518,9.691649,-0.012478,-0.039145,0.232097
2024-01-01 00:00:03.720,0.571388,0.457042,10.514904,-0.147479,0.107595,0.025656
2024-01-01 00:00:03.730,0.377713,0.569267,10.61289,0.08276,-0.190572,0.020052
2024-01-01 00:00:03.740,0.847816,-0.530037,9.701846,-0.202337,-0.168935,-0.254447
2024-01-01 00:00:03.750,-0.302143,-0.322569,10.502045,-0.256431,0.012347,0.053811
2024-01-01 00:00:03.760,0.343476,-0.08814,10.035327,-0.516216,0.03464,0.173613
2024-01-01 00:00:03.770,0.072191,-0.303829,9.850639,0.305451,-0.365123,0.172422
2024-01-01 00:00:03.780,0.862235,0.159379,10.381123,-0.099943,0.091029,0.10025
2024-01-01 00:00:03.790,-0.318267,-0.229406,9.855519,0.039286,0.154546,-0.169423
2024-01-01 00:00:03.800,-0.33064,0.681993,11.106421,-0.00056,-0.015457,0.046969
2024-01-01 00:00:03.810,-0.236011,0.375023,8.903801,-0.266858,0.474893,0.100138
2024-01-01 00:00:03.820,-0.836284,0.066961,9.485442,-0.314766,-0.136587,-0.269167
2024-01-01 00:00:03.830,-0.207016,0.323501,9.730293,-0.251329,-0.072217,-0.168192
2024-01-01 00:00:03.840,-0.298908,0.348359,10.086855,-0.180792,-0.079013,0.133224
2024-01-01 00:00:03.850,0.059218,-0.177643,10.608815,0.091652,-0.015238,0.131407
2024-01-01 00:00:03.860,0.134566,-0.257108,9.794629,-0.198929,-0.065745,-0.232287
2024-01-01 00:00:03.870,0.738742,0.024615,8.913995,0.436623,-0.281362,0.119253
2024-01-01 00:00:03.880,0.374229,0.271415,10.340784,0.256788,-0.10931,0.014296
2024-01-01 00:00:03.890,-0.227156,0.043804,10.285624,0.20209,-0.019524,0.117151
2024-01-01 00:00:03.900,-0.353751,-0.496754,8.586629,-0.029915,0.245714,-0.095178
2024-01-01 00:00:03.910,0.193693,-0.25289,9.807603,0.37857,0.440449,0.096778
2024-01-01 00:00:03.920,-0.519842,-0.023301,8.808211,-0.054501,0.267095,0.126574
2024-01-01 00:00:03.930,0.721137,-0.023835,9.39127,-0.007815,-0.155076,-0.0527
2024-01-01 00:00:03.940,0.464405,0.621351,9.24123,0.042494,-0.139162,0.002663
2024-01-01 00:00:03.950,-0.184738,-0.436586,10.319837,0.175456,-0.031866,-0.097278
2024-01-01 00:00:03.960,-0.674547,0.159261,9.883603,0.159227,0.356912,0.247746
2024-01-01 00:00:03.970,0.533087,0.469071,9.000078,-0.118781,-0.033085,-0.018041
2024-01-01 00:00:03.980,-0.0451,0.715507,10.364442,-0.133248,-0.265501,-0.138304
2024-01-01 00:00:03.990,0.48739,-0.127385,8.906702,0.159976,-0.100235,-0.107374
2024-01-01 00:00:04.000,-0.627806,0.1548,10.017972,0.178809,0.151411,0.019016
2024-01-01 00:00:04.010,-0.236004,0.179475,9.297173,-0.098338,0.137988,0.113
2024-01-01 00:00:04.020,0.002065,0.061577,9.579623,-0.396797,-0.040043,-0.200374
2024-01-01 00:00:04.030,0.018499,-0.031136,10.127691,-0.051829,0.136683,0.277149
2024-01-01 00:00:04.040,-0.177213,0.137332,10.138513,0.155881,-0.454634,0.046301
2024-01-01 00:00:04.050,0.245247,-0.797658,10.652291,0.451354,0.020766,0.069968
2024-01-01 00:00:04.060,-0.420376,0.214852,9.75818,-0.299489,0.172137,-0.014578
2024-01-01 00:00:04.070,-0.056062,0.039746,10.003064,-0.106643,-0.166573,0.002889
2024-01-01 00:00:04.080,0.047366,-0.07008,9.534225,-0.097351,-0.167268,-0.022242
2024-01-01 00:00:04.090,0.20256,0.644762,9.924654,0.338951,-0.37329,0.152669
2024-01-01 00:00:04.100,0.280198,-0.212604,10.086876,-0.008735,0.317979,-0.001189
2024-01-01 00:00:04.110,-0.442828,-0.126969,9.748065,-0.226832,-0.144031,0.115058
2024-01-01 00:00:04.120,-0.604057,0.627339,8.673637,0.139674,0.048209,-0.065077
2024-01-01 00:00:04.130,0.503085,-0.262099,10.018827,-0.10116,0.120783,0.029346
2024-01-01 00:00:04.140,0.130849,-0.173286,10.039674,-0.306097,0.302414,-0.120588
2024-01-01 00:00:04.150,-0.294717,-0.046313,9.381491,-0.223193,-0.03078,0.182479
2024-01-01 00:00:04.160,0.610766,0.264831,9.000836,0.43351,-0.107886,-0.125062
2024-01-01 00:00:04.170,0.045547,0.065458,10.739804,0.096052,0.034614,-0.048747
2024-01-01 00:00:04.180,0.464348,-0.407177,10.119611,0.02694,0.256816,-0.047244
2024-01-01 00:00:04.190,0.026585,-0.167633,9.665679,-0.062473,-0.034035,-0.053093
2024-01-01 00:00:04.200,0.811419,-0.191317,9.093669,0.073037,-0.190974,0.108374
2024-01-01 00:00:04.210,0.691165,-0.024325,9.292257,0.070059,-0.308152,-0.047499
2024-01-01 00:00:04.220,-0.09803,0.134141,10.630632,0.073042,-0.244259,0.209089
2024-01-01 00:00:04.230,0.382556,0.131735,9.896727,0.028711,0.172878,-0.122771
2024-01-01 00:00:04.240,0.254117,-0.559444,9.46313,0.2172,-0.064125,0.025407
2024-01-01 00:00:04.250,0.538899,0.335141,10.131104,0.005776,-0.121504,-0.116368
2024-01-01 00:00:04.260,-0.379939,0.079559,9.296929,-0.244485,-0.143193,0.063146
2024-01-01 00:00:04.270,0.270133,0.436128,10.755531,-0.153106,0.017009,-0.002392
2024-01-01 00:00:04.280,0.416755,0.139922,10.662264,-0.494755,-0.047891,-0.023259
2024-01-01 00:00:04.290,-0.692504,0.346917,9.516058,0.506704,-0.054626,0.178271
2024-01-01 00:00:04.300,-0.465908,0.146962,9.413938,0.215689,0.269865,-0.098151
2024-01-01 00:00:04.310,-0.802948,0.424061,8.160576,-0.207518,0.307603,0.087977
2024-01-01 00:00:04.320,-0.106079,0.164509,8.876604,-0.070461,-0.322004,-0.115344
2024-01-01 00:00:04.330,0.282532,-0.030843,8.966134,-0.159219,0.065519,0.016903
2024-01-01 00:00:04.340,0.591553,0.715817,9.89517,0.385637,-0.155372,-0.179336
2024-01-01 00:00:04.350,1.429175,0.280047,13.454473,-0.354969,-0.04965,-0.099378
2024-01-01 00:00:04.360,2.041267,0.180729,12.812439,0.028619,0.061856,-0.012321
2024-01-01 00:00:04.370,0.856585,-0.402036,13.482867,-0.027132,-0.042544,0.272197
2024-01-01 00:00:04.380,0.729293,-0.405817,13.978362,0.20671,0.046092,0.015121
2024-01-01 00:00:04.390,1.378128,0.092205,13.992539,-0.026002,0.134594,0.2482
2024-01-01 00:00:04.400,0.151226,0.045839,8.613208,-0.439552,0.058915,0.033048
2024-01-01 00:00:04.410,-0.012874,-0.193449,9.729194,-0.062779,-0.129367,-0.058063
2024-01-01 00:00:04.420,-0.814055,0.04441,8.938495,-0.243041,-0.12584,0.230903
2024-01-01 00:00:04.430,-0.035091,0.500417,10.378089,0.019895,-0.287941,0.065553
2024-01-01 00:00:04.440,-0.513635,0.219052,10.304012,0.358544,-0.170784,-0.096408
2024-01-01 00:00:04.450,0.263684,-0.359418,9.244243,-0.434856,0.392414,0.070586
2024-01-01 00:00:04.460,0.144348,-0.035125,9.327392,-0.200056,-0.158401,-0.043889
2024-01-01 00:00:04.470,-0.370078,-0.253564,9.519402,-0.138173,-0.238676,-0.298355
2024-01-01 00:00:04.480,-0.202335,-0.122125,8.39074,-0.095408,0.063986,0.140396
2024-01-01 00:00:04.490,-0.417065,-0.130289,10.02166,0.185031,-0.022073,0.16424
2024-01-01 00:00:04.500,-0.02468,-0.150458,9.638108,-0.043386,-0.039119,0.275691
2024-01-01 00:00:04.510,0.376087,-0.395368,10.42121,0.103951,0.281809,0.063322
2024-01-01 00:00:04.520,-0.38813,-0.040211,9.118002,-0.156443,0.109825,-0.037309
2024-01-01 00:00:04.530,0.198468,-0.176591,9.419953,0.057481,-0.105999,0.125248
2024-01-01 00:00:04.540,-0.208789,-0.922776,8.860889,0.194449,-0.084895,0.127473
2024-01-01 00:00:04.550,-0.312194,0.646686,9.177297,-0.183075,-0.100517,0.245742
2024-01-01 00:00:04.560,-0.042143,0.342962,9.065351,0.19534,0.174948,-0.006694
2024-01-01 00:00:04.570,-0.407627,-0.118535,10.437463,0.013093,-0.06163,-0.024837
2024-01-01 00:00:04.580,-0.217999,0.005928,9.370095,0.261365,-0.358631,-0.107332
2024-01-01 00:00:04.590,-0.471664,-0.369071,9.888231,-0.050355,-0.009664,0.080619
2024-01-01 00:00:04.600,0.773611,0.534153,9.570119,0.095311,-0.307405,-0.232239
2024-01-01 00:00:04.610,0.013885,0.597646,9.010237,-0.010152,0.436846,0.116413
2024-01-01 00:00:04.620,-0.275517,0.049359,9.703971,-0.024053,-0.193134,0.088175
2024-01-01 00:00:04.630,0.084255,0.322412,10.187435,0.064733,-0.032373,0.087761
2024-01-01 00:00:04.640,-0.044229,0.055215,9.049112,0.134202,0.051641,0.020734
2024-01-01 00:00:04.650,-0.087007,-0.421069,10.319741,-0.312391,-0.057732,0.229947
2024-01-01 00:00:04.660,0.241828,-0.129724,9.274676,0.358408,-0.058006,0.130799
2024-01-01 00:00:04.670,0.298269,0.041557,9.50572,-0.464916,0.084365,-0.091062
2024-01-01 00:00:04.680,-0.208885,-0.143183,10.14433,-0.171203,0.305243,-0.088377
2024-01-01 00:00:04.690,-0.226728,-0.068876,9.392035,-0.023567,0.153502,-0.131951
2024-01-01 00:00:04.700,-0.108302,-0.028791,9.833672,0.103089,0.295703,0.082692
2024-01-01 00:00:04.710,-0.906381,-0.025477,9.611745,0.394043,-0.209324,-0.150021
2024-01-01 00:00:04.720,-0.596606,0.016461,9.891502,-0.464573,0.063473,0.162509
2024-01-01 00:00:04.730,0.538207,-0.334091,8.310134,-0.126924,0.031049,0.198446
2024-01-01 00:00:04.740,0.647706,-0.22586,8.6573,-0.531708,0.070218,-0.131852
2024-01-01 00:00:04.750,-0.098058,-0.404644,10.198059,0.007905,0.275246,-0.027832
2024-01-01 00:00:04.760,0.227019,0.308012,10.463424,0.067921,-0.044158,0.002493
2024-01-01 00:00:04.770,0.122555,-0.663279,9.236393,0.397699,-0.081101,0.132597
2024-01-01 00:00:04.780,1.212309,0.363381,9.656262,0.030159,0.106796,0.241402
2024-01-01 00:00:04.790,1.840833,0.4367,13.845673,0.261006,-0.355641,-0.252824
2024-01-01 00:00:04.800,1.349632,-0.095187,14.096727,0.145959,-0.04737,-0.047727
2024-01-01 00:00:04.810,1.023756,-0.819988,12.382563,-0.108812,-0.02684,-0.039903
2024-01-01 00:00:04.820,0.767462,-0.113813,13.101795,-0.35224,-0.184072,-0.2101
2024-01-01 00:00:04.830,1.480114,-0.020218,13.450475,0.068751,0.211412,-0.072767
2024-01-01 00:00:04.840,-0.297813,-0.318338,10.252978,-0.373026,-0.212448,0.064165
2024-01-01 00:00:04.850,-0.560012,-0.162294,11.384011,0.323802,-0.027175,-0.041802
2024-01-01 00:00:04.860,-0.254588,0.482011,9.666356,-0.040516,0.058631,-0.231693
2024-01-01 00:00:04.870,-0.42586,0.209452,8.923604,0.298794,0.27069,0.431112
2024-01-01 00:00:04.880,0.664312,-0.291238,10.063429,-0.120054,-0.002111,0.039927
2024-01-01 00:00:04.890,0.347146,-0.503244,10.642227,0.067213,0.187231,0.016754
2024-01-01 00:00:04.900,-0.003139,-0.10301,9.878049,0.052337,0.140119,-0.164689
2024-01-01 00:00:04.910,0.582728,-0.067239,9.238811,-0.011261,0.024692,0.039106
2024-01-01 00:00:04.920,0.030464,0.156303,10.413536,-0.108165,-0.217903,-0.024632
2024-01-01 00:00:04.930,-0.339131,-0.168625,10.228034,0.098114,-0.286916,-0.283279
2024-01-01 00:00:04.940,0.59973,0.161122,9.163569,-0.231541,0.021301,-0.160538
2024-01-01 00:00:04.950,0.212196,0.609574,10.050298,-0.302359,-0.108539,0.119239
2024-01-01 00:00:04.960,-0.408416,0.256883,10.438277,0.310707,0.183852,0.291603
2024-01-01 00:00:04.970,-0.074946,-0.015148,10.554591,0.181792,0.149171,0.055075
2024-01-01 00:00:04.980,-0.344775,-0.057692,9.768137,0.016473,-0.036922,0.165462
2024-01-01 00:00:04.990,-0.544477,-0.112352,9.58441,0.416286,-0.231543,-0.023363
2024-01-01 00:00:05.000,0.364682,0.371902,10.583183,-0.066941,0.102147,-0.012982
2024-01-01 00:00:05.010,0.751833,-0.197604,9.047599,0.330676,-0.20359,0.163647
2024-01-01 00:00:05.020,-0.550686,0.014245,10.086305,0.043894,-0.151693,0.249417
2024-01-01 00:00:05.030,0.221669,0.016127,8.946883,-0.256188,-0.195883,0.195165
2024-01-01 00:00:05.040,-0.256191,-0.158062,10.481187,0.46201,-0.0277,-0.159954
2024-01-01 00:00:05.050,-0.191806,-0.432327,9.647431,0.247678,0.234038,-0.010044
2024-01-01 00:00:05.060,-0.233255,0.101737,10.609207,-0.030255,-0.001008,0.041629
2024-01-01 00:00:05.070,-0.340196,-0.019216,10.11959,0.181793,-0.088644,-0.038952
2024-01-01 00:00:05.080,0.019105,0.157576,9.039371,-0.100926,-0.305123,0.058179
2024-01-01 00:00:05.090,-0.327187,-0.168084,10.707515,0.207287,0.110425,0.123087
2024-01-01 00:00:05.100,0.106492,0.384559,10.787285,-0.59777,-0.156081,0.150421
2024-01-01 00:00:05.110,-0.019781,-0.276184,10.36584,-0.25495,0.023504,0.252881
2024-01-01 00:00:05.120,-0.094086,0.539293,9.3302,0.244815,-0.070844,-0.049416
2024-01-01 00:00:05.130,-0.357353,-0.550506,9.617211,-0.062414,0.167635,-0.204605
2024-01-01 00:00:05.140,-0.227104,0.136953,9.901619,0.051886,-0.031447,0.053735
2024-01-01 00:00:05.150,0.297435,0.149761,9.366662,-0.336696,-0.011785,0.282572
2024-01-01 00:00:05.160,0.197236,-0.2506,10.876178,0.461967,0.097149,-0.071546
2024-01-01 00:00:05.170,-0.384912,0.133684,9.900926,0.297632,0.421388,0.103027
2024-01-01 00:00:05.180,0.039112,0.403048,8.106891,-0.050171,0.177689,0.104362
2024-01-01 00:00:05.190,0.295859,-0.698298,10.023794,-0.101174,-0.017721,0.028716
2024-01-01 00:00:05.200,-0.657328,0.158365,9.590661,0.257401,0.00064,0.001039
2024-01-01 00:00:05.210,0.213948,-0.78538,9.762796,0.495618,-0.104972,-0.138514
2024-01-01 00:00:05.220,-0.260908,-0.304184,9.57777,0.23844,-0.189999,-0.342249
2024-01-01 00:00:05.230,0.224673,0.513187,10.318439,0.542951,-0.11055,-0.166778
2024-01-01 00:00:05.240,-0.300533,-0.183261,10.515403,-0.230588,-0.15443,-0.058546
2024-01-01 00:00:05.250,-0.710672,-0.369772,9.988323,-0.204847,0.130674,0.164613
2024-01-01 00:00:05.260,-0.640845,-0.06235,9.596234,-0.297235,-0.214239,-0.015469
2024-01-01 00:00:05.270,0.018933,0.65139,9.783958,0.11044,0.266642,-0.077854
2024-01-01 00:00:05.280,0.102266,-0.57698,9.822348,0.043901,0.150409,-0.133648
2024-01-01 00:00:05.290,-0.356075,-0.331163,9.304469,-0.037988,0.0041,0.098521
2024-01-01 00:00:05.300,0.251446,0.471691,10.174725,0.202315,6.4e-05,0.203754
2024-01-01 00:00:05.310,-0.654224,0.585176,10.099827,0.308082,-0.111456,0.159515
2024-01-01 00:00:05.320,-0.026019,-0.032581,10.780478,-0.381416,0.054017,0.090922
2024-01-01 00:00:05.330,-0.476838,-0.390302,10.60087,-0.149243,0.217618,-0.221342
2024-01-01 00:00:05.340,-0.25666,0.660191,9.378025,0.205036,-0.140631,-0.052751
2024-01-01 00:00:05.350,0.018663,0.502249,10.326788,-0.116935,-0.306678,0.292096
2024-01-01 00:00:05.360,-0.338788,0.213868,9.210899,-0.199552,0.140644,0.168293
2024-01-01 00:00:05.370,-0.151419,-0.255907,10.248437,0.254634,0.064873,-0.230625
2024-01-01 00:00:05.380,0.396228,-0.015444,9.484533,-0.322375,-0.22404,-0.008339
2024-01-01 00:00:05.390,-0.227151,-0.050513,9.16535,-0.075395,-0.146678,0.054465
2024-01-01 00:00:05.400,0.329054,0.104218,9.986429,0.082161,-0.171821,-0.114324
2024-01-01 00:00:05.410,-0.444822,0.457065,8.125023,-0.143455,-0.144906,-0.346381
2024-01-01 00:00:05.420,0.20861,0.277016,8.706885,0.195789,-0.064737,0.014824
2024-01-01 00:00:05.430,0.567618,-0.339373,9.69818,-0.142219,-0.053309,-0.118164
2024-01-01 00:00:05.440,-0.97321,0.433596,9.861938,0.352155,-0.130159,-0.117576
2024-01-01 00:00:05.450,-0.313778,0.098637,9.577329,-0.031437,-0.151633,-0.053202
2024-01-01 00:00:05.460,0.227222,0.216426,8.814955,0.167818,-0.045757,-0.020051
2024-01-01 00:00:05.470,-0.079949,0.46196,9.294728,0.186506,0.033538,-0.001362
2024-01-01 00:00:05.480,0.146139,-0.350148,10.056462,-0.156885,-0.063259,-0.132598
2024-01-01 00:00:05.490,-0.237819,-0.011285,10.176523,-0.513372,0.231733,-0.033031
2024-01-01 00:00:05.500,0.034095,-0.167408,9.799779,0.090189,0.101618,-0.263614
2024-01-01 00:00:05.510,-0.061298,-0.493876,10.538805,0.018072,-0.318169,0.046656
2024-01-01 00:00:05.520,0.459814,0.109214,10.06036,0.138957,0.104746,-0.428441
2024-01-01 00:00:05.530,0.100178,0.79114,9.339103,-0.056632,0.121109,-0.043424
2024-01-01 00:00:05.540,0.132931,-0.579624,9.633284,-0.107607,-0.086947,0.137878
2024-01-01 00:00:05.550,-0.162177,-0.010168,8.926194,0.502118,-0.29904,-0.158901
2024-01-01 00:00:05.560,-0.191995,0.201771,9.741872,-0.368089,0.001613,0.107465
2024-01-01 00:00:05.570,-0.17032,0.03877,10.510623,0.183488,-0.001542,0.17336
2024-01-01 00:00:05.580,0.155316,-0.035635,10.241733,-0.14365,-0.224329,-0.496185
2024-01-01 00:00:05.590,-0.165763,-0.409253,10.693266,-0.083945,-0.290244,-0.022704
2024-01-01 00:00:05.600,0.114099,0.073328,9.619182,-0.079276,-0.017511,-0.431366
2024-01-01 00:00:05.610,0.817189,-0.238381,10.658043,-0.200859,-0.046615,-0.017731
2024-01-01 00:00:05.620,0.343005,-0.689825,9.688218,0.142806,-0.083453,-0.001076
2024-01-01 00:00:05.630,-0.128372,0.376297,10.737099,0.347661,-0.016682,-0.372382
2024-01-01 00:00:05.640,0.472978,0.301892,9.79623,0.117503,-0.220555,0.288726
2024-01-01 00:00:05.650,-0.16068,0.016273,10.255556,0.025845,-0.086964,0.042902
2024-01-01 00:00:05.660,-0.802512,0.072159,10.739321,-0.24661,0.106665,-0.127354
2024-01-01 00:00:05.670,-0.396934,0.33841,9.688141,0.129206,-0.069994,0.219807
2024-01-01 00:00:05.680,-0.736624,0.070667,9.947585,0.539087,-0.334394,-0.269342
2024-01-01 00:00:05.690,-0.138408,0.284766,10.621984,-0.095174,-0.094538,-0.184376
2024-01-01 00:00:05.700,0.007252,-0.093707,9.726208,-0.093996,-0.214032,-0.344918
2024-01-01 00:00:05.710,0.660097,0.413275,8.977838,-0.140272,0.053427,0.270157
2024-01-01 00:00:05.720,0.128728,0.101048,11.160094,-0.122354,0.063767,0.049852
2024-01-01 00:00:05.730,-0.086271,0.061126,9.514048,-0.686325,-0.331755,0.09891
2024-01-01 00:00:05.740,0.326578,-0.400069,9.910016,0.101259,0.151803,0.04515
2024-01-01 00:00:05.750,-0.870635,0.090391,10.538284,-0.211388,-0.222437,0.086065
2024-01-01 00:00:05.760,0.092773,-0.262066,9.426649,-0.402566,0.311836,0.011712
2024-01-01 00:00:05.770,0.303528,-0.201059,9.175043,0.188297,-0.009755,0.040638
2024-01-01 00:00:05.780,-0.582193,-0.256843,9.969854,-0.270504,-0.249279,0.016141
2024-01-01 00:00:05.790,1.850353,-0.335864,12.530362,-0.084667,-0.228397,-0.091289
2024-01-01 00:00:05.800,1.533283,0.669303,13.478619,0.366611,0.069619,-0.006994
2024-01-01 00:00:05.810,1.23648,0.419372,13.814374,-0.352304,-0.07826,0.041039
2024-01-01 00:00:05.820,1.649158,0.604916,13.48993,-0.38315,-0.019331,0.016582
2024-01-01 00:00:05.830,2.294085,-0.385212,12.687626,0.067327,0.322556,-0.221666
2024-01-01 00:00:05.840,0.07161,0.022445,10.814332,0.287372,-0.139849,-0.201748
2024-01-01 00:00:05.850,0.097737,-0.407455,9.875229,-0.393585,0.011993,0.162426
2024-01-01 00:00:05.860,-0.180873,-0.219144,10.711626,0.101922,0.283969,-0.046049
2024-01-01 00:00:05.870,-0.334626,-0.28921,9.646177,0.14525,0.054103,0.087709
2024-01-01 00:00:05.880,0.326945,0.390469,9.255592,-0.51479,-0.321321,-0.163818
2024-01-01 00:00:05.890,-0.337083,-0.124812,9.979584,0.199625,0.101078,-0.220972
2024-01-01 00:00:05.900,0.028179,0.336539,9.674054,0.219151,-0.232601,-0.126539
2024-01-01 00:00:05.910,-0.188078,0.190298,9.06801,-0.077946,0.281362,-0.033385
2024-01-01 00:00:05.920,0.188598,0.725646,10.735964,0.313087,-0.164574,-0.099771
2024-01-01 00:00:05.930,0.131379,-0.466025,9.41797,0.284114,0.593902,0.19409
2024-01-01 00:00:05.940,0.408531,0.396658,8.650632,0.025779,0.293475,0.026928
2024-01-01 00:00:05.950,-0.200819,0.361129,10.646745,-0.112861,-0.159323,0.277341
2024-01-01 00:00:05.960,-0.106263,-0.306614,9.492292,-0.243207,0.004003,0.060661
2024-01-01 00:00:05.970,-0.385388,0.317247,9.427071,-0.009391,0.150729,-0.361883
2024-01-01 00:00:05.980,-0.17494,0.105886,8.697806,0.14244,0.156732,0.158406
2024-01-01 00:00:05.990,0.148562,-0.071655,10.906793,-0.081044,0.088467,-0.226433
2024-01-01 00:00:06.000,0.298064,-0.25954,8.997627,-0.549375,0.250432,0.03458
2024-01-01 00:00:06.010,-0.363103,-0.226519,9.846823,0.317178,-0.024594,-0.116203
2024-01-01 00:00:06.020,0.342407,0.645691,10.384951,0.047556,-0.073344,0.321407
2024-01-01 00:00:06.030,0.533782,0.000215,10.075682,-0.094906,-0.069373,0.21594
2024-01-01 00:00:06.040,0.16279,0.246371,9.772418,0.21429,0.171675,-0.111273
2024-01-01 00:00:06.050,0.738988,-0.249133,8.737951,0.38116,0.073036,-0.019104
2024-01-01 00:00:06.060,-0.304679,-0.245654,9.299873,-0.700478,0.058257,0.03669
2024-01-01 00:00:06.070,-0.490083,0.340825,9.928314,0.108566,0.159047,0.129512
2024-01-01 00:00:06.080,-0.700371,-0.425117,9.31408,-0.356662,-0.41021,0.004373
2024-01-01 00:00:06.090,0.589067,-0.130792,9.938116,0.124778,0.062014,-0.153734
2024-01-01 00:00:06.100,0.257656,0.010719,10.239498,0.031982,0.043714,-0.107634
2024-01-01 00:00:06.110,-0.021886,0.035082,10.416377,0.158932,0.333762,-0.000672
2024-01-01 00:00:06.120,0.110238,-0.056414,9.037507,-0.124812,-0.305718,0.185169
2024-01-01 00:00:06.130,-0.443161,0.124683,11.193887,-0.46831,0.311437,0.064176
2024-01-01 00:00:06.140,0.963015,0.21825,10.293512,-0.112592,0.015082,-0.116012
2024-01-01 00:00:06.150,0.050881,0.231411,9.80892,0.101712,0.097798,0.097256
2024-01-01 00:00:06.160,0.043074,-0.310528,10.496408,0.253848,0.335184,-0.058048
2024-01-01 00:00:06.170,0.285771,-0.089509,11.300207,-0.292958,0.112152,0.133561
2024-01-01 00:00:06.180,0.189397,0.37635,8.903606,0.256765,0.080074,0.379052
2024-01-01 00:00:06.190,0.088154,0.281814,9.668085,-0.161968,0.048458,-0.053824
2024-01-01 00:00:06.200,-0.311249,-0.432451,8.311588,0.090612,-0.096696,0.120241
2024-01-01 00:00:06.210,0.185641,0.110716,9.93137,-0.127473,-0.005698,-0.111809
2024-01-01 00:00:06.220,2.141047,-0.623141,13.890198,0.045543,-0.143103,-0.01684
2024-01-01 00:00:06.230,1.929759,0.014784,13.635328,0.222969,-0.008913,0.004434
2024-01-01 00:00:06.240,2.027317,0.597797,13.247644,-0.306754,-0.467186,-0.029053
2024-01-01 00:00:06.250,1.198709,-0.298586,12.368806,-0.169976,0.085808,0.369452
2024-01-01 00:00:06.260,1.010343,-0.262812,13.895326,0.046241,-0.024347,-0.045989
2024-01-01 00:00:06.270,-0.049529,0.240669,10.726924,0.600396,-0.067241,0.088028
2024-01-01 00:00:06.280,0.021942,-0.485982,9.437658,-0.215797,0.043952,-0.289513
2024-01-01 00:00:06.290,0.430838,-0.199318,10.087238,0.510033,-0.286713,0.064799
2024-01-01 00:00:06.300,-0.666408,0.187879,8.822069,0.501106,0.385854,0.171308
2024-01-01 00:00:06.310,0.60226,-0.1998,10.098044,-0.024328,-0.020553,-0.07914
2024-01-01 00:00:06.320,-0.062216,-0.074331,9.562169,-0.074538,-0.029169,-0.376533
2024-01-01 00:00:06.330,-0.168084,0.234418,9.329677,-0.173016,-0.193079,-0.005798
2024-01-01 00:00:06.340,-0.398516,0.132787,9.330971,-0.017051,0.004789,0.002578
2024-01-01 00:00:06.350,-0.6516,0.084048,9.562025,-0.35168,0.277392,0.108611
2024-01-01 00:00:06.360,0.324123,-0.106824,10.050933,-0.01906,0.207183,0.301635
2024-01-01 00:00:06.370,0.028869,0.116569,8.983337,0.37422,0.170888,-0.057008
2024-01-01 00:00:06.380,-0.507922,-0.038976,9.559817,-0.152771,0.10928,-0.128443
2024-01-01 00:00:06.390,-0.509937,0.144209,9.783873,-0.060181,-0.071709,-0.175038
2024-01-01 00:00:06.400,-0.132215,-0.156534,9.117605,-0.425285,-0.290033,0.029712
2024-01-01 00:00:06.410,0.657177,-0.057509,10.941899,0.093516,-0.040208,0.071903
2024-01-01 00:00:06.420,-0.102214,-0.311837,9.272298,0.06612,-0.047174,-0.081848
2024-01-01 00:00:06.430,-0.591863,-0.011027,9.388255,0.015926,0.209759,0.116802
2024-01-01 00:00:06.440,-0.096761,-0.255465,9.193666,-0.054207,0.061878,0.069808
2024-01-01 00:00:06.450,-0.107385,-0.350925,10.943042,-0.073189,0.322462,0.006485
2024-01-01 00:00:06.460,-1.061899,0.081478,10.15833,0.125475,0.239498,-0.135362
2024-01-01 00:00:06.470,-0.021379,0.067013,9.219947,-0.007204,-0.091299,-0.07228
2024-01-01 00:00:06.480,-0.09093,0.246605,10.506926,0.078743,-0.359026,-0.364463
2024-01-01 00:00:06.490,0.274131,-0.135805,9.93644,0.053746,0.277115,0.035368
2024-01-01 00:00:06.500,0.728026,0.128537,9.97207,0.280857,0.271877,0.003951
2024-01-01 00:00:06.510,0.443585,0.173501,9.592979,0.169249,-0.273242,0.028272
2024-01-01 00:00:06.520,-0.105875,0.140104,9.337868,0.048215,0.301848,0.075648
2024-01-01 00:00:06.530,-0.435695,-0.260081,10.022793,0.379606,0.076423,0.057873
2024-01-01 00:00:06.540,1.01326,0.047049,9.466595,0.105067,0.032137,-0.016557
2024-01-01 00:00:06.550,0.023317,0.114704,10.954556,0.326241,0.322957,0.0073
2024-01-01 00:00:06.560,0.005485,0.002261,9.010347,0.151736,0.268937,-0.210647
2024-01-01 00:00:06.570,-0.009499,-0.65724,10.777779,-0.46048,0.130266,-0.087558
2024-01-01 00:00:06.580,0.077996,0.050554,9.739869,0.326209,0.094643,0.007571
2024-01-01 00:00:06.590,-0.056842,0.696947,9.998424,0.033794,0.123279,-0.110378
2024-01-01 00:00:06.600,-0.225879,-0.113412,10.334889,-0.012989,-0.080011,0.129023
2024-01-01 00:00:06.610,-0.215326,-0.229344,9.412943,0.070337,-0.01102,-0.098795
2024-01-01 00:00:06.620,-0.012897,0.117605,10.354476,-0.086246,-0.180463,0.032446
2024-01-01 00:00:06.630,-0.213974,0.098399,8.104247,0.056757,-0.066608,0.017485
2024-01-01 00:00:06.640,-0.280683,0.375712,9.356407,-0.147969,-0.073327,0.111942
2024-01-01 00:00:06.650,0.041907,-0.396228,9.22784,0.318568,-0.127061,0.135119
2024-01-01 00:00:06.660,-0.100397,0.230385,9.020291,-0.028397,0.027349,0.104105
2024-01-01 00:00:06.670,0.592197,0.185983,9.674578,-0.095646,-0.064796,-0.315901
2024-01-01 00:00:06.680,-1.043819,-0.044776,10.053022,-0.231231,0.100447,0.179122
2024-01-01 00:00:06.690,0.429781,0.106687,10.252676,0.067194,-0.324464,0.229096
2024-01-01 00:00:06.700,0.490646,0.324279,9.961752,0.046777,-0.022671,-0.072319
2024-01-01 00:00:06.710,-0.816397,0.274779,9.390613,0.097106,0.02631,0.035497
2024-01-01 00:00:06.720,-0.134933,-0.360051,10.04248,-0.256813,-0.062126,-0.133625
2024-01-01 00:00:06.730,-0.146255,0.25835,9.8883,-0.400295,-0.034479,-0.292257
2024-01-01 00:00:06.740,-0.554208,-0.020377,10.399715,0.156398,-0.317049,-0.110807
2024-01-01 00:00:06.750,-0.306265,0.022955,10.29947,0.37116,0.071295,-0.081021
2024-01-01 00:00:06.760,-0.437289,0.023057,9.8292,-0.256588,0.129521,-0.053228
2024-01-01 00:00:06.770,0.689956,-0.047327,9.244731,0.39736,0.098707,-0.143837
2024-01-01 00:00:06.780,0.368423,0.375388,9.398641,0.070978,0.207745,-0.110014
2024-01-01 00:00:06.790,0.500675,-0.026371,9.463633,-0.001766,0.040306,-0.001651
2024-01-01 00:00:06.800,0.284158,-0.352657,9.611382,-0.099387,0.095736,-0.115534
2024-01-01 00:00:06.810,-0.444564,-0.123962,9.978872,-0.34613,0.031218,0.081529
2024-01-01 00:00:06.820,-0.20653,0.056289,10.26056,0.246932,0.13751,0.102249
2024-01-01 00:00:06.830,0.192691,0.387203,9.777795,-0.193902,-0.315446,0.357058
2024-01-01 00:00:06.840,-0.481213,0.189975,9.820159,-0.194952,-0.178716,0.168852
2024-01-01 00:00:06.850,0.280743,-0.267919,9.900283,0.247982,0.31738,0.036465
2024-01-01 00:00:06.860,-0.094628,0.782835,9.48498,-0.470746,-0.492087,-0.09304
2024-01-01 00:00:06.870,-0.147586,0.083404,9.227003,-0.380899,-0.028036,0.044062
2024-01-01 00:00:06.880,0.27994,0.401748,8.704074,-0.004534,0.234455,0.048989
2024-01-01 00:00:06.890,0.174929,-0.04779,9.372056,0.073321,-0.018652,-0.076997
2024-01-01 00:00:06.900,-0.14213,0.168008,10.108082,0.121184,-0.081002,0.11756
2024-01-01 00:00:06.910,0.456486,0.264433,9.367166,-0.07545,0.025884,-0.209715
2024-01-01 00:00:06.920,-0.425669,0.383731,9.660182,0.632592,-0.070624,-0.03666
2024-01-01 00:00:06.930,0.242525,0.333071,10.103852,-0.056973,0.00617,0.083379
2024-01-01 00:00:06.940,0.233534,0.274742,10.138034,-0.057697,-0.136676,-0.043138
2024-01-01 00:00:06.950,-0.121884,-0.099252,9.129894,-0.199247,0.221735,-0.031013
2024-01-01 00:00:06.960,0.128415,-0.1801,10.438147,0.030977,0.284653,-0.020668
2024-01-01 00:00:06.970,-0.492626,0.104771,10.520231,0.15374,-0.026678,-0.12534
2024-01-01 00:00:06.980,0.363836,0.293935,9.098195,0.300895,-0.277298,0.176085
2024-01-01 00:00:06.990,-0.072805,-0.070157,9.290983,-0.372321,-0.104769,-0.152706
2024-01-01 00:00:07.000,-0.205822,0.335529,10.560387,-0.061499,-0.036798,0.047724
2024-01-01 00:00:07.010,0.413047,0.457574,9.717482,0.111676,0.101108,0.062047
2024-01-01 00:00:07.020,-0.277335,-0.288641,8.41154,0.146764,-0.201603,-0.142293
2024-01-01 00:00:07.030,-0.554582,-0.26363,8.928201,0.001637,-0.153832,0.010966
2024-01-01 00:00:07.040,-0.612923,-0.044218,9.652897,0.135606,0.102135,-0.136445
2024-01-01 00:00:07.050,0.238616,0.096898,9.077283,-0.202241,0.187782,0.208656
2024-01-01 00:00:07.060,-0.504169,-0.165239,9.549543,0.389476,-0.124319,-0.170817
2024-01-01 00:00:07.070,0.69095,0.425944,9.83041,0.248157,-0.266643,-0.098085
2024-01-01 00:00:07.080,-0.81976,0.133581,10.73122,-0.336232,0.656824,-0.183634
2024-01-01 00:00:07.090,0.66798,0.012426,9.627014,-0.268776,0.156661,-0.203655
2024-01-01 00:00:07.100,0.083088,-0.452312,10.485701,-0.26173,-0.053401,0.238682
2024-01-01 00:00:07.110,-0.038081,-0.414482,10.710119,0.169492,0.173806,0.081416
2024-01-01 00:00:07.120,-0.214562,0.088518,10.713615,-0.321182,-0.024891,0.021044
2024-01-01 00:00:07.130,0.15716,-0.671768,9.989395,-0.082756,0.173431,-0.098487
2024-01-01 00:00:07.140,-0.014819,0.318981,8.573128,0.113676,0.031879,0.136142
2024-01-01 00:00:07.150,0.434425,-0.049818,10.10032,-0.016541,0.018254,-0.123633
2024-01-01 00:00:07.160,0.044977,1.021574,10.470492,0.064722,-0.022716,0.119046
2024-01-01 00:00:07.170,0.059181,0.726994,9.758928,-0.266451,-0.289476,-0.130877
2024-01-01 00:00:07.180,-0.143172,-0.057156,10.909088,0.148714,0.387619,-0.096676
2024-01-01 00:00:07.190,-0.022422,-0.033496,10.351695,-0.153303,-0.188307,0.113742
2024-01-01 00:00:07.200,0.121197,0.313608,10.168012,-0.081155,-0.272005,0.129574
2024-01-01 00:00:07.210,-0.673379,0.536499,10.49442,0.059433,-0.042572,0.089621
2024-01-01 00:00:07.220,-0.530848,-0.515979,10.020023,0.02577,-0.192294,-0.157451
2024-01-01 00:00:07.230,1.69266,-0.562708,12.089529,0.005995,-0.010343,-0.067009
2024-01-01 00:00:07.240,1.467278,-0.195941,13.345542,-0.187657,0.137553,0.023535
2024-01-01 00:00:07.250,1.327557,0.183562,14.414216,-0.074887,0.199061,-0.127392
2024-01-01 00:00:07.260,1.407258,0.156515,13.151217,0.000546,0.162946,0.205644
2024-01-01 00:00:07.270,1.53686,0.336978,13.519212,-0.343771,-0.061126,-0.360292
2024-01-01 00:00:07.280,-0.21253,-0.377905,9.151753,-0.115633,0.009918,-0.116811
2024-01-01 00:00:07.290,-0.306457,-0.729585,10.933871,0.09692,0.081576,-0.076435
2024-01-01 00:00:07.300,0.077114,0.270274,10.86934,-0.319359,-0.351557,-0.426592
2024-01-01 00:00:07.310,-0.385234,-0.260882,9.253163,0.289145,0.114117,-0.209434
2024-01-01 00:00:07.320,0.16075,-0.635824,9.902798,0.317403,-0.29146,0.093793
2024-01-01 00:00:07.330,-0.670392,0.045695,9.381289,-0.311288,0.408069,0.004543
2024-01-01 00:00:07.340,0.40523,0.24985,10.197415,0.339405,-0.080903,0.23597
2024-01-01 00:00:07.350,0.186085,-0.038448,10.1311,-0.035895,-0.036975,0.231784
2024-01-01 00:00:07.360,0.100812,-0.144222,10.321375,0.104629,-0.153941,0.064957
2024-01-01 00:00:07.370,0.386935,-0.050199,10.019109,-0.124163,-0.125994,0.046986
2024-01-01 00:00:07.380,0.655781,-0.116734,11.659306,0.230761,0.454819,0.00989
2024-01-01 00:00:07.390,0.399408,-0.424635,9.162408,0.101524,0.188074,-0.398262
2024-01-01 00:00:07.400,-0.724844,-0.225124,8.73232,-0.203538,-0.30984,-0.209184
2024-01-01 00:00:07.410,-0.503833,0.164203,9.562353,-0.2913,0.300843,0.015101
2024-01-01 00:00:07.420,-0.246022,0.101329,8.822167,-0.365076,0.238648,0.092404
2024-01-01 00:00:07.430,0.010273,0.052939,8.869749,0.046985,-0.056242,0.04345
2024-01-01 00:00:07.440,0.203828,-0.313472,9.179172,0.143118,0.061339,-0.13387
2024-01-01 00:00:07.450,-0.285762,-0.057173,9.229021,0.162741,-0.002989,0.140611
2024-01-01 00:00:07.460,0.073539,-0.685775,9.208591,-0.029495,0.394516,0.222367
2024-01-01 00:00:07.470,-0.297432,0.05622,10.136478,-0.289249,-0.159258,0.140698
2024-01-01 00:00:07.480,-0.240785,0.45009,9.491101,-0.170519,0.029202,0.14844
2024-01-01 00:00:07.490,-0.553873,-0.464352,9.696906,0.288087,-0.085629,-0.083884
2024-01-01 00:00:07.500,-0.363523,-0.184567,10.373367,-0.121157,-0.286608,0.16139
2024-01-01 00:00:07.510,-0.532226,0.103669,9.327217,0.035854,0.438328,0.021864
2024-01-01 00:00:07.520,-0.38425,0.394645,9.643336,-0.268913,-0.236313,0.076733
2024-01-01 00:00:07.530,0.414871,-0.141191,10.040429,0.084146,0.044026,0.054815
2024-01-01 00:00:07.540,-0.373826,-0.218059,8.586812,-0.114421,-0.34814,-0.018223
2024-01-01 00:00:07.550,1.0365,-0.620211,8.30751,0.261678,-0.079814,-0.129
2024-01-01 00:00:07.560,0.194244,0.032583,10.028054,0.193389,0.084394,-0.01232
2024-01-01 00:00:07.570,0.072779,0.643254,10.119969,-0.123926,-0.164947,0.148014
2024-01-01 00:00:07.580,-0.337978,0.087368,11.110459,-0.031666,0.11736,-0.066221
2024-01-01 00:00:07.590,0.275747,-0.007018,9.9096,-0.137779,-0.053808,0.134002
2024-01-01 00:00:07.600,-0.226657,0.101456,10.326436,-0.354858,0.232017,0.110561
2024-01-01 00:00:07.610,0.048041,-0.003494,9.686852,-0.214361,0.272352,-0.044841
2024-01-01 00:00:07.620,1.008033,-0.2561,9.997253,0.049554,-0.117349,0.20832
2024-01-01 00:00:07.630,-0.037824,0.259333,10.860372,0.081315,0.015347,-0.053332
2024-01-01 00:00:07.640,0.452526,0.071115,8.471885,0.037137,0.036691,0.226432
2024-01-01 00:00:07.650,-0.276876,0.005548,10.070578,-0.075433,0.12387,0.065119
2024-01-01 00:00:07.660,1.386223,-0.30724,15.00542,0.233267,0.002876,-0.00238
2024-01-01 00:00:07.670,2.097253,0.410605,13.837682,0.015885,0.038042,-0.13317
2024-01-01 00:00:07.680,1.153132,0.209381,14.699861,0.175813,-0.048681,-0.013239
2024-01-01 00:00:07.690,2.113652,-0.17417,13.263596,-0.443444,0.023048,-0.030564
2024-01-01 00:00:07.700,1.678677,0.315575,13.63981,-0.9806,0.259588,-0.188744
2024-01-01 00:00:07.710,-0.221471,-0.156735,9.831121,0.070947,0.129217,-0.032642
2024-01-01 00:00:07.720,0.249011,-0.246331,8.412918,-0.356191,0.140251,-0.12057
2024-01-01 00:00:07.730,0.382943,-0.239306,9.074048,-0.053113,0.144614,0.087899
2024-01-01 00:00:07.740,0.244838,-0.557887,9.118969,-0.075524,-0.030762,0.195942
2024-01-01 00:00:07.750,-0.618276,0.148536,10.327902,0.39685,0.063765,-0.184037
2024-01-01 00:00:07.760,-0.28631,-0.576811,10.359456,0.099999,-0.217035,0.256846
2024-01-01 00:00:07.770,-0.09746,-0.38696,10.014143,0.041465,0.253762,-0.019283
2024-01-01 00:00:07.780,-0.029308,-0.65381,10.329185,0.209248,-0.556592,-0.146253
2024-01-01 00:00:07.790,0.24439,-0.027112,9.706586,0.092124,-0.01743,0.113663
2024-01-01 00:00:07.800,0.06997,-0.047351,10.567217,-0.114419,0.228179,-0.066968
2024-01-01 00:00:07.810,-0.525792,-0.102909,9.815537,0.267869,-0.272774,-0.012261
2024-01-01 00:00:07.820,0.149703,-0.328412,9.846454,-0.277438,0.079956,-0.060642
2024-01-01 00:00:07.830,0.240418,-0.369254,9.642677,0.080812,-0.136153,-0.122511
2024-01-01 00:00:07.840,0.220417,0.146277,10.241204,-0.386892,-0.073761,0.1086
2024-01-01 00:00:07.850,0.425557,-0.173424,9.544645,0.050986,0.189188,-0.042945
2024-01-01 00:00:07.860,0.328357,0.099653,10.425152,0.048247,0.039611,-0.215498
2024-01-01 00:00:07.870,0.180802,-0.278853,9.096746,0.419114,-0.406871,0.082659
2024-01-01 00:00:07.880,-0.027628,0.057035,9.117683,-0.391243,-0.195285,-0.180837
2024-01-01 00:00:07.890,-0.654003,0.410533,10.243079,-0.150222,0.195067,-0.172989
2024-01-01 00:00:07.900,0.169162,0.184642,9.754217,0.205671,0.089789,0.178891
2024-01-01 00:00:07.910,0.081777,-0.12991,9.524048,0.083829,0.349627,-0.179451
2024-01-01 00:00:07.920,0.106934,0.081018,10.370736,0.045076,0.33653,-0.347467
2024-01-01 00:00:07.930,-0.50272,-0.07581,9.427425,-0.239034,-0.068449,0.093429
2024-01-01 00:00:07.940,-0.425666,0.002482,9.683873,-0.147705,0.500648,-0.04558
2024-01-01 00:00:07.950,0.414679,-0.102567,10.691514,0.31126,0.004896,-0.032648
2024-01-01 00:00:07.960,-0.015575,-0.051766,10.77966,-0.012877,-0.192534,-0.047175
2024-01-01 00:00:07.970,0.268341,0.066809,10.800611,0.09384,-0.126728,0.03475
2024-01-01 00:00:07.980,0.01115,-0.312908,9.632261,-0.028797,-0.451345,-0.112908
2024-01-01 00:00:07.990,0.011716,-0.320002,10.585343,-0.295771,0.321404,0.221417
2024-01-01 00:00:08.000,0.369449,-0.437391,9.21216,0.233453,0.318952,-0.221435
2024-01-01 00:00:08.010,-0.203193,-0.504085,9.238651,0.125808,-0.203101,0.066731
2024-01-01 00:00:08.020,0.037848,-0.383444,8.329213,0.576409,-0.045577,0.096318
2024-01-01 00:00:08.030,-0.182021,0.050231,10.863907,-0.253895,0.019122,-0.113948
2024-01-01 00:00:08.040,-0.171083,-0.281228,9.265693,0.205643,-0.192071,-0.15356
2024-01-01 00:00:08.050,-0.121737,0.161789,9.730284,-0.327886,-0.35102,0.152576
2024-01-01 00:00:08.060,0.087465,0.010935,9.236496,0.039337,-0.042072,-0.148629
2024-01-01 00:00:08.070,-0.188507,-0.620079,10.247954,0.244127,-0.064216,-0.091
2024-01-01 00:00:08.080,0.494454,0.206317,9.573351,-0.518034,-0.077682,0.133096
2024-01-01 00:00:08.090,-0.352252,0.255402,8.987965,-0.051233,0.044543,0.005211
2024-01-01 00:00:08.100,-0.073581,-0.313067,10.088247,-0.140802,0.285904,-0.269572
2024-01-01 00:00:08.110,-0.173144,0.13236,8.90675,-0.175489,-0.060619,0.262059
2024-01-01 00:00:08.120,0.569748,-0.269797,9.282434,0.096303,0.034089,-0.079502
2024-01-01 00:00:08.130,0.077393,0.030766,8.48266,0.280171,0.145374,-0.060414
2024-01-01 00:00:08.140,0.406289,-0.398317,8.912906,-0.03332,0.110829,0.038368
2024-01-01 00:00:08.150,-0.584939,-0.564829,9.922473,0.051372,-0.122885,0.093762
2024-01-01 00:00:08.160,0.105151,-0.120587,8.572342,0.028577,0.019275,0.294166
2024-01-01 00:00:08.170,0.350292,-0.038975,8.876878,0.000451,0.109508,-0.24901
2024-01-01 00:00:08.180,0.032399,-0.125269,9.808508,-0.272336,-0.22567,0.123893
2024-01-01 00:00:08.190,0.419533,-0.37297,9.467528,0.277111,0.252708,0.111451
2024-01-01 00:00:08.200,-0.203682,-0.125968,11.064983,0.073799,0.286318,-0.020575
2024-01-01 00:00:08.210,0.554931,0.084828,10.965355,0.09872,-0.144556,0.118091
2024-01-01 00:00:08.220,0.905191,-0.014141,9.263209,-0.201627,0.038734,0.140141
2024-01-01 00:00:08.230,-0.142868,0.057488,10.160997,-0.114805,0.128456,-0.207294
2024-01-01 00:00:08.240,-0.175417,-0.211086,10.282048,-0.044034,-0.109123,0.262465
2024-01-01 00:00:08.250,0.57227,0.369091,9.433588,-0.383531,0.096323,-0.233814
2024-01-01 00:00:08.260,0.621957,-0.370495,8.867809,-0.422009,0.032651,-0.170297
2024-01-01 00:00:08.270,-0.205876,0.153581,9.802252,-0.150187,-0.293584,-0.039268
2024-01-01 00:00:08.280,-0.165449,0.372296,9.701107,0.13063,0.091832,0.288741
2024-01-01 00:00:08.290,-0.110953,0.151486,9.535468,-0.163284,-0.220028,-0.046238
2024-01-01 00:00:08.300,-0.529377,-0.063795,10.08866,-0.254701,0.187841,-0.00479
2024-01-01 00:00:08.310,-0.361719,-0.166414,9.33704,-0.203671,-0.134242,0.214812
2024-01-01 00:00:08.320,-0.39538,0.326368,9.084242,-0.113836,-0.032257,-0.045048
2024-01-01 00:00:08.330,-0.30232,-0.448237,9.878722,-0.088465,0.274456,-0.176766
2024-01-01 00:00:08.340,-0.013657,-0.305589,10.053161,0.54138,0.099276,-0.062585
2024-01-01 00:00:08.350,0.092222,-0.125231,9.068714,0.263655,-0.215895,0.205619
2024-01-01 00:00:08.360,0.61051,0.389861,10.394697,0.256194,-0.202983,0.01063
2024-01-01 00:00:08.370,-0.393102,0.119627,8.694597,0.292145,-0.119861,0.289599
2024-01-01 00:00:08.380,0.387577,-0.304934,9.445789,-0.249705,0.078929,0.11069
2024-01-01 00:00:08.390,-0.084258,-0.097747,9.647455,-0.305591,0.07166,-0.096721
2024-01-01 00:00:08.400,-0.019476,-0.193512,9.409179,-0.276718,-0.16862,0.007661
2024-01-01 00:00:08.410,0.26571,-0.223584,9.454012,0.333627,-0.233442,-0.127983
2024-01-01 00:00:08.420,-0.442072,0.30835,10.988777,-0.136798,0.056317,-0.100265
2024-01-01 00:00:08.430,0.150574,-0.432099,9.273943,-0.312839,-0.036372,0.671863
2024-01-01 00:00:08.440,0.065541,0.506766,11.34797,-0.107749,0.431443,0.152794
2024-01-01 00:00:08.450,0.193903,0.260892,10.08539,-0.059651,0.007321,0.129165
2024-01-01 00:00:08.460,0.11386,0.343621,9.867995,0.067103,0.362851,-0.093477
2024-01-01 00:00:08.470,0.966774,-0.145826,10.110031,0.062738,-0.234077,0.235438
2024-01-01 00:00:08.480,-0.25111,-0.047231,11.403854,-0.207045,-0.314643,0.164912
2024-01-01 00:00:08.490,-0.20908,-0.451443,9.184036,0.171414,-0.224017,0.282243
2024-01-01 00:00:08.500,-0.245362,-0.165269,9.104137,-0.159798,0.237826,0.274967
2024-01-01 00:00:08.510,-0.218719,0.155501,9.334434,-0.039069,0.35122,-0.221863
2024-01-01 00:00:08.520,-0.250971,0.40826,9.83025,0.171694,-0.156436,-0.166476
2024-01-01 00:00:08.530,0.468175,-0.348754,8.722764,-0.160455,-0.092113,-0.150568
2024-01-01 00:00:08.540,0.559324,-0.115134,9.824074,-0.142338,-0.233796,-0.141591
2024-01-01 00:00:08.550,-0.224731,-0.047659,10.876935,0.147917,-0.362328,0.048518
2024-01-01 00:00:08.560,-0.32774,-0.439674,9.905387,-0.214433,0.143682,-0.085021
2024-01-01 00:00:08.570,0.18562,0.186275,9.625608,-0.096198,0.044604,0.31089
2024-01-01 00:00:08.580,-0.217438,-0.228057,9.420559,0.138936,0.002098,0.285702
2024-01-01 00:00:08.590,0.249217,-0.061548,10.376062,0.513523,-0.280011,-0.000969
2024-01-01 00:00:08.600,0.079901,-0.142364,9.289725,0.151351,0.327991,0.293299
2024-01-01 00:00:08.610,-0.596824,-0.248642,10.973229,0.11816,-0.100671,0.22322
2024-01-01 00:00:08.620,0.60933,-0.002219,11.028017,0.1327,0.106725,-0.067606
2024-01-01 00:00:08.630,0.707127,-0.067917,9.971753,-0.268298,-0.290912,-0.301382
2024-01-01 00:00:08.640,-0.241286,-0.117135,9.802745,0.028899,-0.038105,-0.032695
2024-01-01 00:00:08.650,-0.152657,-0.229465,10.459316,-0.007442,0.058275,-0.096693
2024-01-01 00:00:08.660,1.512559,0.10065,14.349723,0.080396,0.065415,0.030976
2024-01-01 00:00:08.670,1.531692,0.520889,13.152225,0.029127,0.03093,0.013384
2024-01-01 00:00:08.680,1.659302,0.044064,13.32827,0.094925,0.098904,0.009453
2024-01-01 00:00:08.690,2.191518,0.313777,12.826921,-0.077867,-0.226104,0.078553
2024-01-01 00:00:08.700,1.330327,-0.43792,13.917711,0.014652,0.039475,-0.181878
2024-01-01 00:00:08.710,-0.31433,0.049695,10.229976,-0.306957,0.022752,0.061704
2024-01-01 00:00:08.720,-0.543107,-0.345671,8.959547,-0.079977,0.046335,-0.065942
2024-01-01 00:00:08.730,-0.287804,-0.465231,9.523225,0.347708,0.014469,0.029997
2024-01-01 00:00:08.740,-0.013044,-0.232902,8.96123,0.079702,-0.254643,0.143611
2024-01-01 00:00:08.750,0.706607,0.375448,9.243756,-0.00523,-0.26356,-0.18366
2024-01-01 00:00:08.760,-0.203809,0.299255,10.157141,0.474031,-0.442854,-0.042194
2024-01-01 00:00:08.770,0.088117,0.076546,9.347906,-0.340209,0.163507,-0.01778
2024-01-01 00:00:08.780,-0.006467,-0.482801,9.62048,-0.277364,0.165532,-0.07714
2024-01-01 00:00:08.790,0.46793,-0.061828,8.784794,0.428178,0.16871,0.134974
2024-01-01 00:00:08.800,0.99498,0.095036,9.927804,0.01149,0.061358,-0.108058
2024-01-01 00:00:08.810,-0.20903,0.055294,9.782108,-0.060646,-0.426624,-0.08331
2024-01-01 00:00:08.820,-0.192717,-0.580795,9.350756,-0.299801,-0.205342,-0.106488
2024-01-01 00:00:08.830,0.411138,-0.28045,9.690921,0.111924,0.034083,0.163808
2024-01-01 00:00:08.840,0.268495,-0.020184,9.923586,0.136115,0.027104,-0.073867
2024-01-01 00:00:08.850,0.727141,0.168932,9.296633,-0.273624,-0.04455,0.069007
2024-01-01 00:00:08.860,0.229922,-0.69178,8.879955,-0.035069,0.073783,0.296356
2024-01-01 00:00:08.870,-0.141471,-0.051069,10.947512,-0.083879,0.00233,-0.011223
2024-01-01 00:00:08.880,0.23257,0.04506,9.411038,0.063994,0.024154,0.166809
2024-01-01 00:00:08.890,0.436552,0.267628,9.749041,-0.279813,-0.127813,0.250703
2024-01-01 00:00:08.900,0.323065,0.21825,10.446829,0.312987,0.196402,0.154079
2024-01-01 00:00:08.910,0.199739,0.18351,12.033305,0.228956,-0.086154,-0.00252
2024-01-01 00:00:08.920,0.420003,-0.251981,9.025974,-0.090794,-0.26613,0.096316
2024-01-01 00:00:08.930,0.46041,-0.601021,10.093391,-0.054105,-0.1542,-0.193107
2024-01-01 00:00:08.940,0.544225,-0.123812,9.364242,-0.034106,-0.069693,-0.117006
2024-01-01 00:00:08.950,0.25543,0.315514,9.470562,-0.194577,0.198801,-0.090701
2024-01-01 00:00:08.960,-0.065803,0.438938,9.356266,-0.110857,-0.008454,0.336092
2024-01-01 00:00:08.970,0.057769,0.223823,9.100837,-0.067568,-0.03723,-0.121888
2024-01-01 00:00:08.980,0.475063,0.135242,9.783986,0.403217,-0.249733,-0.124122
2024-01-01 00:00:08.990,-0.321668,0.119586,8.881063,0.236655,0.157097,-0.156588
2024-01-01 00:00:09.000,0.145165,-0.175177,10.406489,0.233664,-0.13039,0.083972
2024-01-01 00:00:09.010,-0.154877,-0.040969,9.844652,0.092481,-0.020006,0.021393
2024-01-01 00:00:09.020,0.011318,0.525757,10.076134,-0.279332,0.296037,0.163014
2024-01-01 00:00:09.030,0.50339,-0.296906,9.516301,-0.010373,0.101753,0.100689
2024-01-01 00:00:09.040,0.075245,0.508655,9.578662,0.242622,-0.325651,-0.207058
2024-01-01 00:00:09.050,0.018284,-0.101439,9.991165,-0.314566,-0.353902,-0.121092
2024-01-01 00:00:09.060,-0.535443,0.417511,9.076648,0.159138,-0.012862,0.204799
2024-01-01 00:00:09.070,0.293837,-0.443147,9.584466,0.580652,-0.242548,-0.030495
2024-01-01 00:00:09.080,0.254159,0.18456,9.268443,0.265454,0.129709,0.178139
2024-01-01 00:00:09.090,0.851782,-0.232083,9.248942,0.353507,0.008453,-0.022452
2024-01-01 00:00:09.100,1.278812,-0.445809,12.330802,0.054585,0.033077,-0.145148
2024-01-01 00:00:09.110,1.48629,0.068838,14.503776,0.241983,-0.141349,-0.045489
2024-01-01 00:00:09.120,1.498195,0.317984,13.227481,-0.179463,0.348277,-0.145207
2024-01-01 00:00:09.130,2.021122,-0.266157,14.392927,0.198966,0.568519,-0.084833
2024-01-01 00:00:09.140,1.362477,-0.47219,14.333339,0.163597,-0.055717,0.030139
2024-01-01 00:00:09.150,0.109865,-0.028931,8.99982,0.072478,0.070608,0.076741
2024-01-01 00:00:09.160,0.239359,-0.027542,9.124301,0.329002,0.019483,-0.238529
2024-01-01 00:00:09.170,0.073477,0.172721,11.423117,-0.134696,-0.051937,-0.002605
2024-01-01 00:00:09.180,-0.175783,0.299122,10.913083,-0.046764,-0.166414,-0.087992
2024-01-01 00:00:09.190,0.076423,-0.018716,9.790143,0.023866,-0.216994,-0.097262
2024-01-01 00:00:09.200,0.422743,0.584484,9.972145,-0.257403,-0.227119,0.019903
2024-01-01 00:00:09.210,-0.40419,0.070634,9.412567,0.056733,0.081048,-0.082568
2024-01-01 00:00:09.220,0.052357,-0.109124,10.082382,-0.429733,-0.103935,0.207321
2024-01-01 00:00:09.230,-0.275673,-0.507644,9.358175,0.261739,-0.515659,0.178209
2024-01-01 00:00:09.240,0.47055,-0.082738,8.529617,0.011659,0.088972,0.177274
2024-01-01 00:00:09.250,-0.599755,-0.105962,8.97742,-0.130223,-0.007652,-0.074237
2024-01-01 00:00:09.260,-0.220075,0.302496,9.823288,-0.208593,0.269335,-0.144375
2024-01-01 00:00:09.270,0.148527,0.145682,9.097428,-0.058645,0.074624,0.012304
2024-01-01 00:00:09.280,0.616425,-0.371501,9.767615,0.172065,-0.295735,-0.022552
2024-01-01 00:00:09.290,-0.025889,0.05426,9.132964,0.136935,-0.445935,-0.091323
2024-01-01 00:00:09.300,-0.21861,0.211532,9.317117,-0.176384,-0.143894,-0.17636
2024-01-01 00:00:09.310,0.740706,0.48133,10.347494,-0.21151,-0.125021,-0.006228
2024-01-01 00:00:09.320,-0.570155,0.279564,9.965913,0.164225,0.188632,-0.06061
2024-01-01 00:00:09.330,-0.86578,0.239667,9.803911,-0.180587,-0.001774,0.103252
2024-01-01 00:00:09.340,0.173256,0.018927,10.363747,0.014977,0.226738,0.099766
2024-01-01 00:00:09.350,-0.197684,0.122318,10.112783,0.030939,-0.264967,0.16512
2024-01-01 00:00:09.360,-0.40211,0.393594,10.721335,0.078016,0.193053,-0.188894
2024-01-01 00:00:09.370,0.278915,-0.419825,9.520289,0.214568,0.144198,0.060159
2024-01-01 00:00:09.380,0.095997,-0.110073,9.53933,-0.315741,-0.403647,-0.10912
2024-01-01 00:00:09.390,-0.222106,-0.243359,8.990301,-0.47779,0.264524,-0.183062
2024-01-01 00:00:09.400,-0.50412,0.119433,9.539742,-0.141862,0.018692,-0.06429
2024-01-01 00:00:09.410,0.34353,0.38752,10.417805,0.450382,0.078409,0.160306
2024-01-01 00:00:09.420,0.256017,-0.188047,10.628992,0.505544,-0.172979,-0.055848
2024-01-01 00:00:09.430,-0.03905,-0.752946,10.414992,0.457794,0.255049,0.234818
2024-01-01 00:00:09.440,0.727113,-0.12985,8.679659,-0.048245,-0.23717,0.082332
2024-01-01 00:00:09.450,-0.421346,0.287744,10.492381,-0.445529,0.166418,-0.059114
2024-01-01 00:00:09.460,-0.600676,0.169353,8.651733,-0.58576,0.164121,0.174007
2024-01-01 00:00:09.470,-0.272439,0.134879,10.375814,-0.15351,-0.194833,0.06681
2024-01-01 00:00:09.480,-0.017949,-0.088198,9.578296,-0.049518,0.396675,-0.139884
2024-01-01 00:00:09.490,0.095815,-0.402895,10.252596,0.325156,0.046306,0.27882
2024-01-01 00:00:09.500,-0.094987,0.162318,8.970558,0.216951,0.130779,0.038922
2024-01-01 00:00:09.510,0.138622,-0.262799,10.547836,0.056851,-0.305424,0.002819
2024-01-01 00:00:09.520,-0.492794,0.68799,8.887066,-0.222461,0.423546,-0.12833
2024-01-01 00:00:09.530,0.568482,0.17971,9.388873,-0.240195,-0.244911,0.176931
2024-01-01 00:00:09.540,-0.032347,-0.182904,9.1812,0.063532,0.204977,0.077591
2024-01-01 00:00:09.550,0.439935,-0.192586,8.704801,0.174263,-0.198954,0.094386
2024-01-01 00:00:09.560,0.134948,-0.029277,9.869552,0.09797,-0.123798,-0.07613
2024-01-01 00:00:09.570,0.179847,-0.075443,10.947836,-0.258649,0.157751,0.125115
2024-01-01 00:00:09.580,0.224346,0.351803,11.49015,0.162667,0.205511,0.136772
2024-01-01 00:00:09.590,0.176285,0.058721,9.871208,0.106478,-0.254257,-0.100317
2024-01-01 00:00:09.600,0.253072,-0.230464,10.513509,-0.267667,0.218094,-0.212549
2024-01-01 00:00:09.610,0.523354,0.595489,9.95622,-0.19608,0.208996,0.087206
2024-01-01 00:00:09.620,0.07738,0.015532,10.124296,0.172124,-0.187591,-0.236002
2024-01-01 00:00:09.630,0.27917,0.242184,9.594446,-0.058627,0.31973,0.022802
2024-01-01 00:00:09.640,-0.035333,-0.191591,9.932898,0.397287,-0.291372,-0.067087
2024-01-01 00:00:09.650,0.567046,0.114381,10.148612,0.125282,-0.124955,0.1828
2024-01-01 00:00:09.660,-0.266329,0.098,9.44557,-0.121658,0.095801,-0.058927
2024-01-01 00:00:09.670,0.70912,-0.59524,9.761179,-0.002551,-0.170713,0.166091
2024-01-01 00:00:09.680,-0.015812,0.634812,9.773189,0.015846,0.052764,-0.077131
2024-01-01 00:00:09.690,-0.563368,0.406553,10.330634,-0.182098,0.048215,0.149999
2024-01-01 00:00:09.700,0.050441,-0.125117,9.1384,-0.228147,-0.037415,0.309051
2024-01-01 00:00:09.710,-0.268164,-0.347215,9.777528,0.175347,0.16648,-0.160207
2024-01-01 00:00:09.720,0.331003,0.109482,11.014563,0.211318,-0.045672,0.043805
2024-01-01 00:00:09.730,-0.256971,0.02731,10.543358,0.150945,0.046308,0.412317
2024-01-01 00:00:09.740,-0.175685,0.112036,10.659983,0.37883,0.229294,0.009988
2024-01-01 00:00:09.750,-0.744007,0.060347,9.825392,-0.135443,0.158137,0.009268
2024-01-01 00:00:09.760,-0.178096,0.159466,10.012228,0.418568,0.157203,0.118275
2024-01-01 00:00:09.770,-0.954402,0.455901,10.441409,-0.22523,-0.229836,0.006162
2024-01-01 00:00:09.780,-0.623662,0.178953,10.792961,-0.253171,0.104959,-0.256084
2024-01-01 00:00:09.790,0.299413,-0.330641,8.58049,-0.43999,-0.1757,0.169843
2024-01-01 00:00:09.800,0.309409,0.429207,8.981272,-0.111449,-0.256283,-0.300442
2024-01-01 00:00:09.810,0.167524,0.516794,10.63495,-0.125931,-0.014341,-0.062519
2024-01-01 00:00:09.820,-0.380747,0.992898,9.63556,0.131484,-0.180859,0.181114
2024-01-01 00:00:09.830,-0.018786,-0.353901,9.386816,0.060973,0.158124,-0.053481
2024-01-01 00:00:09.840,-0.001418,0.076508,9.019879,-0.298243,0.162907,-0.104054
2024-01-01 00:00:09.850,-0.456106,-0.655861,9.460339,-0.098182,-0.380525,0.13189
2024-01-01 00:00:09.860,0.591963,0.174242,8.926507,-0.092866,-0.165661,-0.127667
2024-01-01 00:00:09.870,0.345461,-0.172683,11.127389,-0.443996,-0.291957,-0.183334
2024-01-01 00:00:09.880,-0.087005,0.605885,9.795865,-0.245237,-0.092526,0.041177
2024-01-01 00:00:09.890,0.010586,-0.244004,9.773491,-0.192703,0.091035,-0.027438
2024-01-01 00:00:09.900,0.082051,-0.532093,10.180488,0.358406,-0.048458,-0.186551
2024-01-01 00:00:09.910,-0.803933,-0.148448,10.416277,0.047863,-0.117952,0.095543
2024-01-01 00:00:09.920,-0.097326,-0.622279,10.40591,0.165542,0.260035,0.069673
2024-01-01 00:00:09.930,-0.268531,0.236596,10.486382,-0.374659,-0.460971,-0.053963
2024-01-01 00:00:09.940,-0.394388,-0.650501,9.412567,0.298554,0.247374,-0.0437
2024-01-01 00:00:09.950,-0.110683,0.008964,9.622344,0.325276,-0.108858,0.070559
2024-01-01 00:00:09.960,0.707839,-0.654511,10.29449,-0.499586,-0.015622,0.178554
2024-01-01 00:00:09.970,0.252332,-0.100894,9.477745,-0.176329,-0.105473,-0.042419
2024-01-01 00:00:09.980,-0.224902,0.517664,9.806783,0.123941,0.308578,0.098203
2024-01-01 00:00:09.990,0.225454,0.113604,10.061221,0.161097,-0.246196,0.08478
2024-01-01 00:00:10.000,0.550996,-0.272,10.304667,-0.169624,0.002347,0.131896
2024-01-01 00:00:10.010,0.364075,-0.009829,8.690061,-0.076375,0.105488,0.005896
2024-01-01 00:00:10.020,0.023479,0.005675,10.26029,-0.149345,-0.322201,-0.136849
2024-01-01 00:00:10.030,-0.254731,0.148879,9.662754,0.027605,-0.18398,-0.069375
2024-01-01 00:00:10.040,0.274925,-0.43056,10.255698,0.299295,-0.029636,0.051428
2024-01-01 00:00:10.050,0.154935,0.186659,10.299467,-0.192761,-0.177333,0.27277
2024-01-01 00:00:10.060,0.352482,-0.851883,10.822986,0.250205,-0.163118,-0.072603
2024-01-01 00:00:10.070,0.250099,-0.198414,10.662676,-0.195418,-0.069973,0.120718
2024-01-01 00:00:10.080,0.413261,-0.153806,10.65834,-0.211907,0.129916,-0.049208
2024-01-01 00:00:10.090,-0.210749,0.199498,10.719512,0.204649,-0.068544,0.01657
2024-01-01 00:00:10.100,1.918724,0.007129,13.843569,0.230484,0.215685,0.22731
2024-01-01 00:00:10.110,1.477805,-0.442752,13.680277,0.212852,-0.199552,0.114644
2024-01-01 00:00:10.120,2.217134,-0.310273,14.209875,-0.328949,-0.250384,-0.186195
2024-01-01 00:00:10.130,1.128632,0.062584,14.121211,-0.116488,0.385269,-0.085871
2024-01-01 00:00:10.140,2.083536,-0.024906,13.465288,0.205747,-0.131592,0.188433
2024-01-01 00:00:10.150,0.077927,-0.182424,10.065039,0.010385,-0.262182,0.021282
2024-01-01 00:00:10.160,-0.256496,-0.151463,9.787889,-0.268423,-0.348411,-0.172326
2024-01-01 00:00:10.170,-0.19053,0.219293,9.272022,0.114579,0.215021,-0.122843
2024-01-01 00:00:10.180,-0.126137,-0.163073,10.62299,-0.178702,-0.068261,0.105524
2024-01-01 00:00:10.190,0.167015,-0.027749,9.844776,0.448631,-0.050742,0.149162
2024-01-01 00:00:10.200,0.205866,0.68353,11.100686,0.38621,-0.03184,0.002678
2024-01-01 00:00:10.210,-0.225894,-0.44846,8.78594,0.151024,0.202589,0.371297
2024-01-01 00:00:10.220,-0.00959,-0.58333,9.459229,0.340252,-0.035906,0.123623
2024-01-01 00:00:10.230,0.843519,0.246831,9.830562,0.016198,0.468811,-0.036522
2024-01-01 00:00:10.240,0.68022,-0.213773,10.52655,0.191359,0.026752,-0.122356
2024-01-01 00:00:10.250,0.171802,-0.100245,10.061666,0.36943,0.212357,-0.146233
2024-01-01 00:00:10.260,0.014964,-0.246064,10.005598,0.061375,0.161048,0.050313
2024-01-01 00:00:10.270,0.047262,-0.081837,9.099824,-0.063797,-0.007289,-0.073317
2024-01-01 00:00:10.280,0.241573,0.50354,9.081127,-0.426155,-0.117394,0.251062
2024-01-01 00:00:10.290,-0.402725,0.25267,10.013178,-0.020783,0.066393,0.219947
2024-01-01 00:00:10.300,-0.101342,0.2716,8.950613,0.205856,0.10202,0.09496
2024-01-01 00:00:10.310,-0.657005,-0.446112,9.474917,0.236408,-0.114517,-0.176849
2024-01-01 00:00:10.320,0.157194,-0.362613,10.125578,0.126091,0.033268,-0.100833
2024-01-01 00:00:10.330,0.254833,-0.89431,9.191136,-0.135325,0.247241,0.188352
2024-01-01 00:00:10.340,-0.190255,-0.254955,10.821374,-0.494205,0.41399,-0.08446
2024-01-01 00:00:10.350,0.619757,0.301362,10.58108,-0.123804,0.170874,0.168321
2024-01-01 00:00:10.360,-0.482645,0.162838,8.820005,-0.076086,0.372552,0.071191
2024-01-01 00:00:10.370,-0.576598,-0.069777,9.222606,-0.078232,-0.125875,0.007758
2024-01-01 00:00:10.380,0.088378,-0.007025,8.36996,0.154639,0.140376,-0.105425
2024-01-01 00:00:10.390,0.412295,-0.216999,9.316967,0.496419,0.267704,-0.014137
2024-01-01 00:00:10.400,0.663047,0.064499,10.292825,0.030882,-0.179267,0.028447
2024-01-01 00:00:10.410,-0.180686,0.241252,9.549246,-0.054183,-0.097118,0.154881
2024-01-01 00:00:10.420,0.424731,-0.509004,10.100302,-0.064805,0.347581,-0.13286
2024-01-01 00:00:10.430,-0.015163,0.094389,8.850929,0.031096,-0.19502,-0.039423
2024-01-01 00:00:10.440,-0.067972,0.293717,10.312724,-0.207073,-0.268226,0.006723
2024-01-01 00:00:10.450,0.347941,-0.130757,9.460281,0.03005,0.305596,0.099402
2024-01-01 00:00:10.460,0.256852,0.220721,9.817667,0.112703,0.239353,-0.13627
2024-01-01 00:00:10.470,-0.620704,0.886616,9.751489,0.052422,0.086424,-0.197485
2024-01-01 00:00:10.480,0.581388,-0.032868,9.008924,0.114385,-0.009142,0.101095
2024-01-01 00:00:10.490,0.543411,0.123892,9.083557,0.108437,-0.087705,-0.227692
2024-01-01 00:00:10.500,-0.246315,-0.232488,10.419711,-0.442974,0.05639,0.192747
2024-01-01 00:00:10.510,0.155848,0.057094,10.061365,0.159218,0.315961,-0.023389
2024-01-01 00:00:10.520,0.194524,0.144986,10.471531,-0.167754,0.047713,-0.23213
2024-01-01 00:00:10.530,1.50264,0.061375,13.864535,-0.27396,0.433392,-0.072063
2024-01-01 00:00:10.540,1.183317,-0.321204,13.750084,-0.276113,-0.179588,0.056869
2024-01-01 00:00:10.550,1.135548,0.065004,12.572613,0.108385,-0.003936,-0.079905
2024-01-01 00:00:10.560,1.389938,0.460592,13.489669,-0.055644,-0.074612,0.003004
2024-01-01 00:00:10.570,1.861762,0.14132,13.642748,-0.420492,-0.217028,0.111012
2024-01-01 00:00:10.580,0.214043,0.303026,11.040458,0.119509,-0.030617,-0.030329
2024-01-01 00:00:10.590,-0.145929,-0.074659,10.242783,-0.359902,0.083466,-0.140559
2024-01-01 00:00:10.600,0.303856,0.236219,10.777719,0.034955,0.104846,-0.044848
2024-01-01 00:00:10.610,-1.121614,0.087969,10.186449,0.059625,0.43409,0.212226
2024-01-01 00:00:10.620,0.452326,-0.299537,9.361879,0.221394,0.092893,0.25276
2024-01-01 00:00:10.630,-0.685012,0.100334,9.883788,0.445421,0.230027,-0.302989
2024-01-01 00:00:10.640,-0.142711,-0.312384,9.958821,-0.341169,0.013219,0.163654
2024-01-01 00:00:10.650,-0.44087,-0.199357,9.218332,-0.013118,0.335611,0.037522
2024-01-01 00:00:10.660,-0.509781,0.059638,9.567836,-0.069084,0.47969,0.138597
2024-01-01 00:00:10.670,0.457076,0.093632,9.680367,0.108437,0.106217,-0.082573
2024-01-01 00:00:10.680,-0.184157,-0.374608,10.82154,0.053917,-0.198532,-0.26524
2024-01-01 00:00:10.690,0.136436,0.332006,8.499133,-0.088137,-0.109761,0.087673
2024-01-01 00:00:10.700,-0.018475,0.180182,10.569666,-0.110226,0.056387,-0.141147
2024-01-01 00:00:10.710,0.187835,-0.221989,9.219819,-0.279113,0.0913,-0.208244
2024-01-01 00:00:10.720,0.030249,-0.484339,8.94559,0.246965,0.139685,-0.19776
2024-01-01 00:00:10.730,-0.505178,-0.045645,10.553364,0.114801,0.09204,0.090137
2024-01-01 00:00:10.740,0.39228,-0.140472,10.271096,0.229442,0.001397,0.020918
2024-01-01 00:00:10.750,-0.194417,0.035639,10.600347,-0.077599,-0.12724,0.11737
2024-01-01 00:00:10.760,-0.612904,-0.114382,10.314442,-0.164209,0.080228,0.100361
2024-01-01 00:00:10.770,-0.16857,-0.632349,11.107702,-0.269579,0.370997,-0.06314
2024-01-01 00:00:10.780,0.590924,-0.122329,10.161996,0.089729,0.203986,-0.010571
2024-01-01 00:00:10.790,0.334775,-0.09627,9.711419,-0.259948,0.106941,-0.076716
2024-01-01 00:00:10.800,-0.137282,0.199603,10.026044,0.462166,0.205913,-0.031549
2024-01-01 00:00:10.810,-0.13752,-0.219933,10.593386,-0.326911,-0.074213,-0.145088
2024-01-01 00:00:10.820,-0.126644,0.528783,9.318994,0.068415,-0.101653,0.058573
2024-01-01 00:00:10.830,0.81772,-0.602167,9.39931,0.391714,-0.149557,0.161268
2024-01-01 00:00:10.840,0.150387,0.413018,9.615355,0.149772,-0.025057,-0.122492
2024-01-01 00:00:10.850,0.169329,-0.07066,8.484113,0.043918,-0.084401,0.19219
2024-01-01 00:00:10.860,0.405674,0.270769,9.896989,-0.242121,0.241655,0.017028
2024-01-01 00:00:10.870,0.094023,0.025137,8.621739,-0.345442,-0.095065,0.036162
2024-01-01 00:00:10.880,-0.101998,0.35896,9.843427,0.192513,-0.160544,-0.254914
2024-01-01 00:00:10.890,-0.077313,-0.122019,10.355133,0.376537,0.388515,-0.271089
2024-01-01 00:00:10.900,-0.028193,-0.346065,9.509568,-0.109712,-0.090275,0.021617
2024-01-01 00:00:10.910,-0.014656,0.447459,10.866583,-0.284765,0.030706,0.11846
2024-01-01 00:00:10.920,0.286504,-0.035746,8.889884,-0.614542,0.090265,-0.100707
2024-01-01 00:00:10.930,0.020454,0.069791,10.560494,-0.245191,-0.227339,0.250514
2024-01-01 00:00:10.940,0.288477,0.388947,10.235336,-0.028414,0.247097,0.11024
2024-01-01 00:00:10.950,-0.031782,-0.325066,8.728899,0.399781,0.127424,-0.136251
2024-01-01 00:00:10.960,0.030963,0.18758,11.5178,0.168283,0.311677,0.004627
2024-01-01 00:00:10.970,-0.786792,-0.185817,9.76984,0.076271,-0.135844,0.371539
2024-01-01 00:00:10.980,0.360804,-0.041633,9.257185,-0.10003,0.019825,-0.186385
2024-01-01 00:00:10.990,0.13643,0.022768,8.923535,-0.145791,0.007871,0.07924
2024-01-01 00:00:11.000,0.392966,-0.47257,9.671389,0.351412,0.052778,-0.048412
2024-01-01 00:00:11.010,-1.140401,-0.245334,9.729734,0.050185,-0.290923,0.106034
2024-01-01 00:00:11.020,0.822298,0.425588,9.874667,-0.52565,0.022167,0.190091
2024-01-01 00:00:11.030,-0.054963,0.27915,9.622388,-0.168385,-0.285293,-0.057936
2024-01-01 00:00:11.040,0.436347,-0.019731,10.208932,-0.214554,0.071667,0.167837
2024-01-01 00:00:11.050,-0.409463,0.076584,9.565793,-0.136566,-0.42573,0.333181
2024-01-01 00:00:11.060,0.24128,-0.092686,8.590973,0.140728,-0.370317,0.009941
2024-01-01 00:00:11.070,-0.414782,0.427324,9.715902,-0.026861,0.16371,0.117733
2024-01-01 00:00:11.080,-0.245609,-0.063111,8.318489,-0.019216,-0.109368,-0.088566
2024-01-01 00:00:11.090,0.75365,0.07303,10.032875,0.328368,-0.197572,0.002889
2024-01-01 00:00:11.100,-0.075081,0.360999,9.193041,-0.174115,0.254169,-0.026501
2024-01-01 00:00:11.110,0.085614,-0.244872,9.912917,0.46605,0.065525,0.11954
2024-01-01 00:00:11.120,0.342589,0.491019,10.637867,-0.167827,0.174418,0.180701
2024-01-01 00:00:11.130,0.195175,-0.482095,9.212288,0.0223,-0.033248,-0.016448
2024-01-01 00:00:11.140,0.059227,0.513337,10.478591,-0.070301,0.535926,0.230043
2024-01-01 00:00:11.150,0.143703,-0.117393,9.536965,0.030855,-0.120903,0.229507
2024-01-01 00:00:11.160,0.946345,-0.07645,10.914513,0.111148,0.348899,0.127028
2024-01-01 00:00:11.170,-0.022687,-0.595353,9.579954,0.108459,-0.012273,-0.077404
2024-01-01 00:00:11.180,0.079183,-0.14326,9.280489,-0.188279,-0.330902,-0.091774
2024-01-01 00:00:11.190,0.413695,-0.327539,10.24296,-0.280729,0.09657,-0.121857
2024-01-01 00:00:11.200,0.435301,-0.191409,9.535452,0.625793,0.062953,0.142375
2024-01-01 00:00:11.210,0.467393,-0.043253,9.279887,-0.120996,-0.210264,-0.181765
2024-01-01 00:00:11.220,0.2515,0.301704,9.508961,0.174803,-0.184444,0.101526
2024-01-01 00:00:11.230,-0.450058,0.065395,9.781898,-0.40191,-0.00494,-0.162166
2024-01-01 00:00:11.240,0.643164,0.096918,10.655573,-0.069903,0.06995,0.123532
2024-01-01 00:00:11.250,-0.451373,-0.345089,8.591525,-0.0318,-0.494133,0.002583
2024-01-01 00:00:11.260,0.119163,-0.277438,9.824541,0.118204,0.210624,0.200046
2024-01-01 00:00:11.270,-0.296996,0.566598,10.203689,-0.680614,-0.0989,0.171218
2024-01-01 00:00:11.280,-0.025254,-0.231588,9.931873,0.041535,-0.266349,0.21526
2024-01-01 00:00:11.290,0.12945,0.521706,10.635215,-0.287435,0.188213,0.219123
2024-01-01 00:00:11.300,0.126534,-0.076564,9.763162,0.081086,-0.004724,0.021545
2024-01-01 00:00:11.310,0.166131,0.000721,9.693733,-0.259082,0.243233,-0.173819
2024-01-01 00:00:11.320,0.635399,0.337165,10.183168,-0.213871,0.08759,-0.157878
2024-01-01 00:00:11.330,0.178579,0.400646,9.872568,-0.068407,-0.000303,-0.313027
2024-01-01 00:00:11.340,-0.096137,-0.034906,9.564042,-0.263082,-0.030546,-0.16255
2024-01-01 00:00:11.350,0.379609,-0.122297,10.135171,-0.118884,0.096543,0.010324
2024-01-01 00:00:11.360,0.468354,-0.017615,9.398907,-0.298344,-0.082706,-0.083948
2024-01-01 00:00:11.370,-0.483371,0.106457,9.424958,-0.458293,-0.170515,-0.02702
2024-01-01 00:00:11.380,0.235226,0.280761,9.477364,0.254489,0.121982,0.073907
2024-01-01 00:00:11.390,0.276087,0.001332,10.662434,-0.324012,-0.028898,-0.04561
2024-01-01 00:00:11.400,-0.117166,0.194949,7.78076,-0.04467,0.006714,-0.168274
2024-01-01 00:00:11.410,0.541685,0.516083,10.059227,0.188223,0.217876,-0.007985
2024-01-01 00:00:11.420,-0.059084,0.120113,9.831591,-0.153736,-0.022775,-0.134774
2024-01-01 00:00:11.430,0.049446,0.098171,8.751052,-0.206291,0.003007,-0.040618
2024-01-01 00:00:11.440,-0.068147,-0.478457,10.005128,0.05656,-0.11993,0.201417
2024-01-01 00:00:11.450,0.006134,-0.82868,10.109724,0.279483,0.086148,-0.040576
2024-01-01 00:00:11.460,-0.431658,0.122338,10.181473,-0.292329,0.069966,0.265644
2024-01-01 00:00:11.470,-0.56702,-0.02987,8.139348,-0.037537,0.180155,0.214745
2024-01-01 00:00:11.480,0.627836,-0.162157,10.670825,-0.433124,-0.115826,-0.086896
2024-01-01 00:00:11.490,-0.333491,0.076712,9.345226,-0.0983,-0.091563,-0.166669
2024-01-01 00:00:11.500,-0.390361,-0.019027,10.242538,0.008551,0.158427,-0.007883
2024-01-01 00:00:11.510,-0.847897,0.355251,10.276876,-0.213656,0.050443,0.172999
2024-01-01 00:00:11.520,-0.251591,0.027125,9.257681,-0.114248,-0.181244,-0.073529
2024-01-01 00:00:11.530,-0.520967,-0.235281,10.22609,-0.352057,0.261311,0.136214
2024-01-01 00:00:11.540,2.046543,0.311902,13.417139,0.01927,-0.33969,0.181266
2024-01-01 00:00:11.550,1.797615,-0.068396,12.355032,0.263924,0.156857,-0.116104
2024-01-01 00:00:11.560,1.129041,0.165859,14.395677,-0.274286,-0.253042,-0.101408
2024-01-01 00:00:11.570,2.286897,-0.150384,13.171722,-0.155668,0.377158,0.106899
2024-01-01 00:00:11.580,1.78657,-0.204695,13.121669,0.125637,-0.30892,0.022777
2024-01-01 00:00:11.590,-0.127902,0.026513,9.556069,0.303023,0.23045,-0.102909
2024-01-01 00:00:11.600,-0.984141,0.004041,9.981509,-0.373297,-0.016327,-0.052827
2024-01-01 00:00:11.610,0.902059,0.151146,9.77392,-0.042196,-0.073321,-0.010578
2024-01-01 00:00:11.620,-0.547144,-0.084623,10.155282,0.070783,0.037079,-0.234728
2024-01-01 00:00:11.630,-0.647876,-0.578453,8.966122,-0.025514,0.12638,0.114846
2024-01-01 00:00:11.640,0.402637,-0.136324,9.342297,-0.619198,-0.18088,-0.071804
2024-01-01 00:00:11.650,0.960653,0.250053,9.736922,0.125273,-0.163158,-0.417557
2024-01-01 00:00:11.660,0.545057,-0.093673,11.005669,0.379834,0.129921,-0.003581
2024-01-01 00:00:11.670,0.222039,-0.077611,9.738298,0.029165,-0.341469,-0.111236
2024-01-01 00:00:11.680,0.234185,0.310709,10.49369,-0.257777,-0.116846,0.253323
2024-01-01 00:00:11.690,0.336032,-0.224272,9.83429,-0.128282,0.608137,-0.087817
2024-01-01 00:00:11.700,0.298828,-0.485983,9.505295,0.442478,-0.193603,-0.164647
2024-01-01 00:00:11.710,0.110719,-0.050599,9.654564,0.227491,0.229561,0.07619
2024-01-01 00:00:11.720,0.041029,-0.152515,9.703896,0.160007,-0.11719,-0.099067
2024-01-01 00:00:11.730,-0.024646,-0.304368,10.190297,0.089103,0.101809,-0.116918
2024-01-01 00:00:11.740,-0.296874,-0.055244,10.676005,-0.165284,0.130871,0.076425
2024-01-01 00:00:11.750,-0.110516,0.154824,10.036599,-0.050143,0.225791,-0.15607
2024-01-01 00:00:11.760,-0.666602,-0.002926,10.557859,-0.019481,-0.040051,-0.218591
2024-01-01 00:00:11.770,-0.038721,0.096699,9.202182,0.137394,0.397777,0.2589
2024-01-01 00:00:11.780,-0.389258,0.571223,9.548783,0.37723,-0.117867,0.086925
2024-01-01 00:00:11.790,-0.434538,-0.108007,9.353689,0.279585,0.046844,-0.039631
2024-01-01 00:00:11.800,0.070833,0.08768,10.0081,-0.354846,0.049055,-0.000522
2024-01-01 00:00:11.810,0.548101,-0.160402,9.583856,0.055999,-0.224394,0.07588
2024-01-01 00:00:11.820,0.361587,-0.266603,10.269757,0.184191,-0.057174,0.146001
2024-01-01 00:00:11.830,-0.618385,-0.184246,9.223469,0.154715,0.032303,-0.113396
2024-01-01 00:00:11.840,-0.389666,-0.150809,9.83711,-0.157308,-0.086424,0.054922
2024-01-01 00:00:11.850,0.370429,0.113235,10.24272,0.728527,0.488185,-0.076006
2024-01-01 00:00:11.860,-0.386854,0.739959,8.508859,-0.319271,-0.167725,-0.028347
2024-01-01 00:00:11.870,-0.088449,-0.225554,11.146628,-0.270797,0.235885,0.024104
2024-01-01 00:00:11.880,0.216583,-0.131237,9.631614,0.058399,0.171292,-0.001002
2024-01-01 00:00:11.890,-0.381286,-0.019884,8.534225,0.529201,-0.002772,0.110335
2024-01-01 00:00:11.900,0.041492,0.124677,9.909599,-0.209049,-0.173042,0.073063
2024-01-01 00:00:11.910,-0.525273,0.083019,9.831069,-0.066457,-0.153651,-0.226225
2024-01-01 00:00:11.920,-0.236789,0.40449,9.758407,0.269323,-0.103593,-0.203673
2024-01-01 00:00:11.930,0.125914,-0.764314,10.43445,-0.004466,-0.357148,-0.055458
2024-01-01 00:00:11.940,-0.627241,-0.751883,10.28089,-0.083651,-0.200693,0.274294
2024-01-01 00:00:11.950,0.173437,-0.156202,9.997662,0.141408,-0.296495,-0.127739
2024-01-01 00:00:11.960,-0.007732,0.34565,10.093598,0.068129,0.269175,-0.031233
2024-01-01 00:00:11.970,1.617543,-0.493179,13.594254,0.25761,0.123692,-0.080452
2024-01-01 00:00:11.980,1.488166,-0.947404,14.778559,0.322867,0.157195,-0.083107
2024-01-01 00:00:11.990,1.93713,0.179922,12.728107,0.076751,0.117766,0.026736
2024-01-01 00:00:12.000,1.449307,0.076752,13.747981,0.072933,0.033394,0.210117
2024-01-01 00:00:12.010,1.230922,-0.343416,13.700966,0.053528,0.292136,0.068395
2024-01-01 00:00:12.020,0.048155,-0.310445,10.322367,0.122283,-0.122153,-0.12053
2024-01-01 00:00:12.030,0.213924,-0.305469,9.278372,0.013793,0.021334,0.412984
2024-01-01 00:00:12.040,0.019239,0.034819,8.711486,-0.000152,0.149412,0.011786
2024-01-01 00:00:12.050,0.015983,-0.197289,9.908799,0.299157,-0.264242,-0.086583
2024-01-01 00:00:12.060,-0.276409,0.15563,9.987175,0.379029,0.619318,0.211814
2024-01-01 00:00:12.070,-0.261017,-0.899207,10.748448,-0.376888,0.005713,-0.070361
2024-01-01 00:00:12.080,-0.552276,-0.269908,9.009672,0.002505,0.028398,0.249437
2024-01-01 00:00:12.090,0.688896,-0.354707,10.537457,-0.172174,0.251376,-0.130596
2024-01-01 00:00:12.100,-0.489771,-0.080747,11.301471,-0.077743,0.182991,0.214505
2024-01-01 00:00:12.110,-0.272831,-0.169485,9.572008,0.100629,0.007616,0.030157
2024-01-01 00:00:12.120,-0.282873,0.251321,8.996706,0.16736,0.026026,0.193658
2024-01-01 00:00:12.130,0.352376,-0.585691,9.553606,-0.028032,-0.30083,0.285265
2024-01-01 00:00:12.140,-0.116136,0.01433,9.818823,-0.478335,-0.111293,-0.169891
2024-01-01 00:00:12.150,0.491298,0.175876,10.165186,-0.241261,0.103442,0.191366
2024-01-01 00:00:12.160,-0.265187,0.584844,9.437421,0.224125,0.088779,-0.211336
2024-01-01 00:00:12.170,0.109854,-0.151756,10.789775,-0.685107,0.244233,-0.157078
2024-01-01 00:00:12.180,-0.328918,0.102204,9.107845,0.296857,-0.0241,-0.120511
2024-01-01 00:00:12.190,0.844652,-0.568217,8.714301,0.130307,-0.277457,0.075545
2024-01-01 00:00:12.200,-0.467617,-0.753466,10.507228,0.329044,0.211346,0.004952
2024-01-01 00:00:12.210,0.121992,0.266104,8.376989,-0.049642,0.287218,-0.02507
2024-01-01 00:00:12.220,0.24955,-0.001751,9.681398,-0.515351,0.179649,0.021935
2024-01-01 00:00:12.230,0.162933,0.371231,11.774139,0.107591,-0.032727,0.088693
2024-01-01 00:00:12.240,-0.072957,-0.432622,9.802413,0.318663,0.208877,0.100237
2024-01-01 00:00:12.250,-0.051117,0.163769,9.103916,0.23118,0.685782,0.164125
2024-01-01 00:00:12.260,0.017251,0.588678,9.77384,-0.165673,0.02303,0.273005
2024-01-01 00:00:12.270,-0.057882,0.132207,9.777996,0.02169,-0.262347,-0.003204
2024-01-01 00:00:12.280,0.379527,0.087123,9.911209,-0.133209,-0.117257,-0.078163
2024-01-01 00:00:12.290,0.870393,0.002695,10.227226,-0.204817,0.125095,0.09203
2024-01-01 00:00:12.300,-0.219512,-0.494828,9.15536,0.238847,-0.320961,-0.171638
2024-01-01 00:00:12.310,-0.53936,0.427005,10.873155,-0.299383,0.033881,-0.101806
2024-01-01 00:00:12.320,-0.034761,-0.19242,9.964422,-0.223454,0.076067,0.149907
2024-01-01 00:00:12.330,1.015761,0.158912,10.26788,-0.276006,0.307024,-0.018619
2024-01-01 00:00:12.340,-0.316447,-0.492356,9.414266,-0.372562,0.262039,-0.181229
2024-01-01 00:00:12.350,0.645402,-0.37153,10.620421,0.036604,0.172917,-0.22347
2024-01-01 00:00:12.360,0.660595,0.452053,9.648057,0.290376,-0.432536,0.007308
2024-01-01 00:00:12.370,-0.217975,-0.1094,9.984858,-0.046219,0.184211,0.171284
2024-01-01 00:00:12.380,0.224037,0.457782,9.222143,-0.376437,0.141103,0.169282
2024-01-01 00:00:12.390,0.641181,-0.024643,9.181933,0.209986,0.051189,0.016632
2024-01-01 00:00:12.400,-0.149282,-0.580198,10.243569,0.421425,-0.346044,0.301336
2024-01-01 00:00:12.410,-0.08016,0.281001,9.530528,-0.161561,-0.155355,-0.015723
2024-01-01 00:00:12.420,-0.229037,-0.185816,9.272091,-0.119639,-0.233365,-0.020785
2024-01-01 00:00:12.430,-0.39956,0.220087,9.404794,0.128915,-0.403002,-0.385115
2024-01-01 00:00:12.440,-0.255653,0.007941,10.25034,0.405468,-0.000583,-0.067104
2024-01-01 00:00:12.450,-0.481926,-0.486082,9.413706,-0.129959,-0.159564,0.127802
2024-01-01 00:00:12.460,0.01342,0.051753,9.735877,-0.333112,0.525061,0.234594
2024-01-01 00:00:12.470,-0.303177,0.69181,9.819467,0.157855,-0.033754,-0.124535
2024-01-01 00:00:12.480,0.092053,0.155291,8.60207,0.199767,0.258751,0.069338
2024-01-01 00:00:12.490,-0.612634,-0.018118,8.88319,0.001533,-0.31382,0.157032
2024-01-01 00:00:12.500,0.130284,0.338733,10.021855,-0.139533,-0.106018,0.001681
2024-01-01 00:00:12.510,0.328202,0.066361,9.345672,0.248595,0.01938,-0.342492
2024-01-01 00:00:12.520,-0.785033,0.066003,10.475737,0.132009,-0.181631,0.037093
2024-01-01 00:00:12.530,0.147285,-0.343862,10.419088,-0.192109,-0.08444,0.114215
2024-01-01 00:00:12.540,0.483395,0.073662,10.263076,0.012274,-0.04359,-0.142113
2024-01-01 00:00:12.550,-0.476296,0.326165,10.956456,-0.337927,-0.046782,-0.038123
2024-01-01 00:00:12.560,0.658575,-0.26336,9.757654,0.171473,0.371024,-0.173324
2024-01-01 00:00:12.570,0.164989,0.448716,10.218796,-0.065558,0.075645,-0.385522
2024-01-01 00:00:12.580,-0.277598,-0.028887,9.441827,-0.108928,0.095902,0.154051
2024-01-01 00:00:12.590,-0.021959,-0.279647,11.354993,-0.008219,0.107931,-0.000562
2024-01-01 00:00:12.600,0.219841,0.314254,11.059689,0.010077,0.122525,0.239651
2024-01-01 00:00:12.610,0.029927,-0.09034,9.817485,0.223733,-0.016577,0.128598
2024-01-01 00:00:12.620,0.212135,0.239247,10.053549,0.147773,-0.064149,-0.053131
2024-01-01 00:00:12.630,-0.362515,-0.091904,10.666357,-0.039102,0.033363,-0.012477
2024-01-01 00:00:12.640,0.066686,-0.018845,9.717302,0.190917,0.231361,0.084927
2024-01-01 00:00:12.650,-0.55665,0.155471,9.396327,0.100184,0.225248,0.145033
2024-01-01 00:00:12.660,-0.043795,0.091633,10.360614,-0.10665,-0.04808,0.048401
2024-01-01 00:00:12.670,-0.355914,-0.628593,9.859417,-0.03118,0.153569,0.165839
2024-01-01 00:00:12.680,-0.289615,-0.353192,9.925287,-0.037056,-0.038917,-0.0445
2024-01-01 00:00:12.690,0.486712,0.292764,9.284409,0.126315,0.006774,-0.149572
2024-01-01 00:00:12.700,0.429703,-0.041623,8.727867,-0.091756,-0.094705,-0.009721
2024-01-01 00:00:12.710,0.239848,-0.164975,9.95877,-0.097602,-0.036329,0.030778
2024-01-01 00:00:12.720,-0.430098,-0.427951,10.380126,0.492189,0.268266,-0.18023
2024-01-01 00:00:12.730,-0.124586,-0.340117,9.667742,0.234934,0.018484,-0.200508
2024-01-01 00:00:12.740,0.477657,-0.636867,10.714951,-0.19015,0.027057,0.067108
2024-01-01 00:00:12.750,0.055801,-0.031903,9.366533,0.142735,-0.289444,-0.060954
2024-01-01 00:00:12.760,0.913236,-0.188508,9.145536,0.029588,-0.061849,-0.024876
2024-01-01 00:00:12.770,0.154869,-0.304475,9.767645,0.097888,-0.048263,-0.053954
2024-01-01 00:00:12.780,0.075619,-0.021459,9.757967,0.034335,-0.165829,0.22809
2024-01-01 00:00:12.790,-0.121715,0.114651,10.29508,0.297411,0.004333,0.189264
2024-01-01 00:00:12.800,0.052582,0.659357,9.321773,0.086405,-0.085836,-0.185603
2024-01-01 00:00:12.810,-0.060035,-0.476243,10.671899,-0.015522,0.015999,-0.079919
2024-01-01 00:00:12.820,0.278818,0.365205,11.049158,0.260548,0.024301,0.127501
2024-01-01 00:00:12.830,0.376702,0.306527,9.785339,0.058321,-0.191151,0.09029
2024-01-01 00:00:12.840,-0.309483,-0.245414,10.597318,0.03037,-0.07974,-0.006219
2024-01-01 00:00:12.850,-0.524173,0.064019,9.144407,0.078506,0.015475,-0.17064
2024-01-01 00:00:12.860,-0.723006,-0.144154,10.48739,-0.023402,0.23686,-0.102381
2024-01-01 00:00:12.870,0.200022,0.058492,10.469784,0.002307,0.051344,-0.077515
2024-01-01 00:00:12.880,-0.434451,0.475376,10.353965,-0.146674,-0.132387,0.041549
2024-01-01 00:00:12.890,-0.847701,0.190766,9.800195,-0.187792,0.079801,0.255559
2024-01-01 00:00:12.900,0.153003,0.160212,7.948823,-0.249643,0.34151,-0.103032
2024-01-01 00:00:12.910,0.981619,-0.135547,9.405712,-0.347996,0.183341,-0.153905
2024-01-01 00:00:12.920,-0.00239,-0.467478,9.415673,-0.219929,0.109505,-0.016288
2024-01-01 00:00:12.930,0.330156,-0.065667,9.193699,-0.043567,0.145118,0.154761
2024-01-01 00:00:12.940,0.03222,0.380082,9.887013,0.025779,0.287991,-0.217032
2024-01-01 00:00:12.950,-0.038938,-0.481058,9.546053,-0.067824,0.215125,0.218045
2024-01-01 00:00:12.960,0.361886,-0.332353,9.290494,-0.588926,0.113352,-0.025805
2024-01-01 00:00:12.970,-0.114296,0.039774,9.142956,0.393647,0.213728,-0.110148
2024-01-01 00:00:12.980,1.505286,-0.310166,13.209227,0.27162,-0.21633,-0.240028
2024-01-01 00:00:12.990,1.526669,-0.249645,14.366545,0.11144,-0.300453,0.105978
2024-01-01 00:00:13.000,1.136939,-0.133434,13.243554,0.476873,0.03142,-0.025676
2024-01-01 00:00:13.010,1.790617,-0.430169,13.335589,-0.244341,0.013736,0.025606
2024-01-01 00:00:13.020,1.33111,-0.306848,13.372281,0.471906,-0.108782,-0.135122
2024-01-01 00:00:13.030,-0.297575,0.22158,10.023566,-0.241304,0.165171,-0.047864
2024-01-01 00:00:13.040,0.211251,-0.411821,10.097437,0.059684,-0.372573,-0.072987
2024-01-01 00:00:13.050,-0.353772,-0.50333,7.891866,-0.318459,-0.106954,-0.015089
2024-01-01 00:00:13.060,0.011096,-0.198458,10.45363,0.003674,-0.096991,-0.100433
2024-01-01 00:00:13.070,-0.003591,0.230566,10.714912,0.096542,-0.32726,-0.230127
2024-01-01 00:00:13.080,0.427571,-0.06203,9.148382,-0.038673,0.298946,0.409275
2024-01-01 00:00:13.090,0.186912,-0.146343,9.197452,0.178469,-0.27184,-0.204511
2024-01-01 00:00:13.100,-0.009854,0.013973,9.52634,0.024754,-0.117668,0.027219
2024-01-01 00:00:13.110,0.321995,-0.549898,9.333717,-0.130604,0.181596,-0.265804
2024-01-01 00:00:13.120,0.547394,0.155832,9.951074,-0.141703,0.129209,-0.299557
2024-01-01 00:00:13.130,0.219638,0.120782,8.583689,0.202728,-0.221635,0.014674
2024-01-01 00:00:13.140,0.004076,-0.128932,9.105706,-0.163436,0.136498,0.026155
2024-01-01 00:00:13.150,-0.516536,0.316866,10.779694,0.228851,0.057957,0.189225
2024-01-01 00:00:13.160,-0.419389,-0.355161,9.225221,0.305678,0.466607,0.059932
2024-01-01 00:00:13.170,-0.120182,0.355291,10.59336,-0.417178,0.080788,-0.022472
2024-01-01 00:00:13.180,-0.239995,0.048666,10.033863,0.283232,-0.028248,-0.14244
2024-01-01 00:00:13.190,-0.07362,-0.106014,8.670161,0.515106,-0.1713,0.224852
2024-01-01 00:00:13.200,0.022306,-0.00626,10.210257,0.063001,-0.148849,0.139328
2024-01-01 00:00:13.210,0.208567,-0.033788,9.73587,0.149771,-0.165154,-0.186949
2024-01-01 00:00:13.220,-0.027759,0.384389,9.523056,0.259251,0.27422,0.005695
2024-01-01 00:00:13.230,0.19156,-0.339154,9.964323,-0.068871,0.003594,0.021608
2024-01-01 00:00:13.240,0.025387,-0.240194,10.109019,0.04557,0.113049,-0.051848
2024-01-01 00:00:13.250,-0.77784,0.326435,10.255783,-0.32855,0.30285,0.115778
2024-01-01 00:00:13.260,-0.369863,-0.187594,10.552299,0.034659,-0.471693,0.12476
2024-01-01 00:00:13.270,-0.056734,0.283668,10.067126,0.124528,0.255775,-0.028573
2024-01-01 00:00:13.280,-0.476317,0.535322,8.943351,0.129041,0.011079,-0.04213
2024-01-01 00:00:13.290,0.236222,-0.126565,9.511603,0.266356,0.08701,0.224844
2024-01-01 00:00:13.300,0.602733,0.214629,11.66412,-0.193701,-0.165681,0.139926
2024-01-01 00:00:13.310,0.479887,-0.363413,10.266429,-0.133152,-0.151025,0.010854
2024-01-01 00:00:13.320,-0.084043,0.237741,11.302651,0.473877,0.097769,-0.244381
2024-01-01 00:00:13.330,0.586973,0.062819,10.689123,-0.037582,0.47692,0.0516
2024-01-01 00:00:13.340,0.058538,0.149007,9.962335,0.050008,0.200663,0.104713
2024-01-01 00:00:13.350,-0.132728,-0.203355,9.999886,-0.016753,0.253105,-0.413178
2024-01-01 00:00:13.360,-0.241527,-0.523241,9.786955,-0.20542,-0.0384,0.03778
2024-01-01 00:00:13.370,-0.119097,0.158524,8.715183,0.405882,-0.120041,-0.062504
2024-01-01 00:00:13.380,-0.152845,-0.649972,9.82137,-0.131925,-0.156161,-0.033128
2024-01-01 00:00:13.390,0.067101,-0.099965,10.572725,-0.281821,-0.097655,-0.136107
2024-01-01 00:00:13.400,0.063226,0.296472,9.432227,-0.112685,-0.410556,-0.022228
2024-01-01 00:00:13.410,1.401199,0.060448,13.91953,-0.500427,-0.144984,0.208799
2024-01-01 00:00:13.420,1.572044,0.613728,14.196502,-0.162822,-0.112071,-0.06696
2024-01-01 00:00:13.430,1.868817,0.322909,13.086901,-0.242032,-0.035072,0.144836
2024-01-01 00:00:13.440,1.773887,-0.205978,13.375679,0.154357,0.02635,-0.12095
2024-01-01 00:00:13.450,0.815321,0.008604,13.018716,-0.168354,0.07249,0.113813
2024-01-01 00:00:13.460,-1.005606,-0.014922,9.292036,0.221951,-0.002985,0.000248
2024-01-01 00:00:13.470,0.367888,-0.498386,8.998809,0.349621,-0.116289,0.052804
2024-01-01 00:00:13.480,-0.538208,-0.296226,9.242717,0.195294,-0.392672,0.001073
2024-01-01 00:00:13.490,-0.088501,-0.17664,10.704257,-0.053847,-0.115062,0.096244
2024-01-01 00:00:13.500,-0.460732,-0.641409,9.233249,0.035279,-0.19449,-0.385138
2024-01-01 00:00:13.510,-0.70953,0.01496,9.889669,-0.381246,0.093213,-0.212974
2024-01-01 00:00:13.520,0.213201,-0.078458,9.493193,-0.033445,0.181857,0.062562
2024-01-01 00:00:13.530,0.298917,-0.526962,10.552686,-0.21511,0.187714,-0.306531
2024-01-01 00:00:13.540,-0.227001,0.127327,10.636032,0.173582,0.151391,-0.079587
2024-01-01 00:00:13.550,-1.020223,0.2255,10.354364,0.643188,-0.026705,-0.008151
2024-01-01 00:00:13.560,-0.215084,0.071516,10.002865,0.124955,-0.104391,-0.124221
2024-01-01 00:00:13.570,0.154273,-0.102081,9.664432,-0.497785,-0.149421,-0.103734
2024-01-01 00:00:13.580,-0.582321,0.186304,9.059119,-0.090308,-0.3015,0.040737
2024-01-01 00:00:13.590,0.072198,0.214269,11.034423,0.030623,0.198371,0.151394
2024-01-01 00:00:13.600,-0.006028,0.096832,9.331406,0.021839,-0.034942,-0.143767
2024-01-01 00:00:13.610,0.228096,-0.259753,10.228097,-0.182703,-0.249268,-0.086259
2024-01-01 00:00:13.620,0.047085,0.087129,10.477526,0.061323,-0.165298,-0.109689
2024-01-01 00:00:13.630,-0.383146,0.376576,9.460173,-0.310625,-0.173395,-0.363207
2024-01-01 00:00:13.640,0.47115,-0.187938,10.463948,-0.236227,0.008605,0.021257
2024-01-01 00:00:13.650,-0.062421,0.660851,10.291454,0.161449,0.213494,0.140208
2024-01-01 00:00:13.660,-0.010751,-0.165574,10.898617,-0.253916,-0.069598,0.152496
2024-01-01 00:00:13.670,-0.367474,0.010208,9.514312,0.134553,-0.450507,-0.130615
2024-01-01 00:00:13.680,-0.174542,-0.211833,8.999906,-0.342366,-0.037836,-0.187755
2024-01-01 00:00:13.690,-0.348391,0.07033,9.491541,0.441206,-0.031239,0.003241
2024-01-01 00:00:13.700,-0.068098,-0.5488,9.941578,-0.193567,-0.044984,0.124391
2024-01-01 00:00:13.710,0.673985,-0.172003,9.846674,-0.055917,-0.125492,0.023228
2024-01-01 00:00:13.720,-0.540186,-0.344018,9.562134,0.082653,0.043488,0.043396
2024-01-01 00:00:13.730,-0.63534,0.042632,8.607206,-0.141337,0.013228,0.171275
2024-01-01 00:00:13.740,0.579273,0.313251,10.106404,0.035851,-0.004966,-0.11087
2024-01-01 00:00:13.750,-0.082421,0.203492,11.052577,0.143839,0.082528,-0.032996
2024-01-01 00:00:13.760,-0.263447,-0.747073,10.102478,0.240153,-0.085967,0.245191
2024-01-01 00:00:13.770,0.409462,0.643252,10.193755,0.197874,-0.097317,-0.029522
2024-01-01 00:00:13.780,-0.238461,0.093013,10.170641,-0.042953,0.276025,-0.190101
2024-01-01 00:00:13.790,0.718991,-0.244597,10.060139,-0.036658,0.111871,-0.100403
2024-01-01 00:00:13.800,0.266933,0.049495,10.39695,0.587277,0.165389,-0.140727
2024-01-01 00:00:13.810,-0.192115,0.0555,10.059085,0.237472,0.245221,0.053574
2024-01-01 00:00:13.820,0.84944,-0.210057,9.613013,-0.230456,0.105189,-0.134392
2024-01-01 00:00:13.830,-0.2385,0.062344,9.308527,0.024997,0.185678,0.040655
2024-01-01 00:00:13.840,0.2922,-0.191354,9.653147,-0.083786,-0.315869,-0.11041
2024-01-01 00:00:13.850,0.117846,-0.127374,10.007902,-0.033834,0.040831,-0.318507
2024-01-01 00:00:13.860,0.512561,-0.216178,9.610868,-0.307374,-0.036544,0.045993
2024-01-01 00:00:13.870,0.614845,-0.451291,10.008033,-0.102981,0.335537,0.02227
2024-01-01 00:00:13.880,0.012602,0.045938,10.086665,0.452889,0.185529,0.077664
2024-01-01 00:00:13.890,-0.296658,0.184369,10.334903,0.144769,-0.126089,-0.100948
2024-01-01 00:00:13.900,0.181114,0.162188,10.618161,-0.62279,0.074559,-0.116932
2024-01-01 00:00:13.910,-0.26685,0.258276,9.859145,0.304181,0.033536,0.06022
2024-01-01 00:00:13.920,0.792771,0.102167,8.986101,0.272407,0.090866,0.227853
2024-01-01 00:00:13.930,0.053761,-0.167809,9.592584,-0.089821,-0.203768,0.001675
2024-01-01 00:00:13.940,-0.143845,0.264494,9.837759,0.179316,0.072003,0.063688
2024-01-01 00:00:13.950,0.072718,-0.427618,8.653466,-0.21485,-0.04563,-0.048238
2024-01-01 00:00:13.960,-0.530431,-0.283711,10.684859,-0.117564,0.05649,-0.231545
2024-01-01 00:00:13.970,-0.382573,-0.303723,9.899698,0.374637,-0.144877,0.145114
2024-01-01 00:00:13.980,0.472663,0.340218,10.050252,-0.067933,-0.117013,0.136262
2024-01-01 00:00:13.990,-0.258652,0.296978,10.670282,-0.467433,0.234768,0.106616
2024-01-01 00:00:14.000,-0.412221,0.153501,9.41301,-0.015826,-0.21031,-0.027292
2024-01-01 00:00:14.010,0.211307,0.337658,10.171646,-0.019647,-0.195551,0.089558
2024-01-01 00:00:14.020,0.466871,-0.276974,9.740786,0.299592,-0.010316,0.134064
2024-01-01 00:00:14.030,0.283088,0.109807,9.694025,0.003584,-0.154378,0.243024
2024-01-01 00:00:14.040,0.392194,-0.03943,9.323519,-0.105396,-0.177006,0.148279
2024-01-01 00:00:14.050,-0.297988,0.266768,10.85933,0.261264,0.021015,0.009573
2024-01-01 00:00:14.060,-0.559838,-0.036296,9.573435,0.030198,-0.301013,-0.196238
2024-01-01 00:00:14.070,0.59115,-0.121257,10.250662,-0.187506,-0.201592,0.023349
2024-01-01 00:00:14.080,-0.127055,0.170386,8.628745,0.288749,0.410819,0.038487
2024-01-01 00:00:14.090,-0.098766,0.275993,10.553393,0.048415,0.091895,0.106354
2024-01-01 00:00:14.100,0.522976,-0.210529,10.472893,0.000731,-0.149313,0.203084
2024-01-01 00:00:14.110,0.219016,-0.019239,9.871383,0.044477,0.083643,-0.014273
2024-01-01 00:00:14.120,0.179506,-0.333409,9.667026,-0.267667,0.113466,0.315148
2024-01-01 00:00:14.130,0.85247,-0.786889,10.062,-0.131913,0.198883,-0.263893
2024-01-01 00:00:14.140,-0.253385,0.063145,11.251938,0.000896,-0.025431,0.062901
2024-01-01 00:00:14.150,0.365337,0.191805,8.699161,-0.048666,0.1953,-0.119778
2024-01-01 00:00:14.160,0.022449,0.082551,10.302677,0.318107,-0.407689,-0.286083
2024-01-01 00:00:14.170,0.105758,-0.614112,9.235681,0.054351,-0.211262,-0.030266
2024-01-01 00:00:14.180,0.601834,-0.110518,9.797451,0.213726,0.032774,-0.218576
2024-01-01 00:00:14.190,0.19996,-0.69878,9.653836,0.002349,0.065927,-0.024214
2024-01-01 00:00:14.200,0.211954,0.431456,9.540159,0.264072,-0.182356,0.005215
2024-01-01 00:00:14.210,0.4223,-0.342107,9.803407,0.099382,0.051884,0.167781
2024-01-01 00:00:14.220,-0.1437,0.395452,9.095472,0.003355,-0.124768,-0.226138
2024-01-01 00:00:14.230,-0.330439,0.297949,10.458384,-0.003321,-0.055392,0.136267
2024-01-01 00:00:14.240,-0.411394,-0.283686,8.67969,-0.23861,0.204955,0.014712
2024-01-01 00:00:14.250,-0.774253,-0.356827,10.150052,0.126729,0.181787,0.154327
2024-01-01 00:00:14.260,0.809632,0.110367,9.604282,-0.010051,-0.199412,-0.064763
2024-01-01 00:00:14.270,-0.434388,-0.265962,9.072317,-0.125498,-0.21145,-0.199837
2024-01-01 00:00:14.280,-0.087119,0.032283,9.937502,0.276615,-0.082235,-0.182625
2024-01-01 00:00:14.290,-0.108995,-0.152091,8.829121,-0.312554,-0.005349,-0.193771
2024-01-01 00:00:14.300,0.121041,-0.561065,9.83502,-0.105624,-0.13158,0.071672
2024-01-01 00:00:14.310,0.321197,-0.702597,8.913588,0.25693,0.208128,0.221538
2024-01-01 00:00:14.320,0.338811,0.071406,10.100601,0.078881,0.069478,-0.084743
2024-01-01 00:00:14.330,-0.229587,-0.176891,9.227655,-0.011965,0.081217,0.09437
2024-01-01 00:00:14.340,-0.065804,-0.174223,9.525874,0.062751,-0.253308,-0.228516
2024-01-01 00:00:14.350,0.111266,0.219197,9.995188,0.044854,0.233458,0.027048
2024-01-01 00:00:14.360,-0.097922,0.369634,9.323298,-0.379166,-0.564034,0.100284
2024-01-01 00:00:14.370,0.632892,-0.085852,9.773483,-0.087315,0.166811,-0.217219
2024-01-01 00:00:14.380,0.193321,-0.107289,8.856287,0.40413,0.186862,-0.030583
2024-01-01 00:00:14.390,0.289358,0.157545,10.207452,-0.164831,-0.08648,0.107388
2024-01-01 00:00:14.400,0.261009,-0.427435,10.921896,-0.079575,0.254582,-0.440066
2024-01-01 00:00:14.410,1.862055,0.070293,15.419092,-0.135405,-0.01262,0.200318
2024-01-01 00:00:14.420,1.471277,0.173844,13.717436,-0.021754,0.012486,0.053052
2024-01-01 00:00:14.430,0.889372,0.214273,14.156569,-0.145781,0.067906,0.107509
2024-01-01 00:00:14.440,1.557377,-0.610077,12.538206,0.121685,0.637315,-0.061908
2024-01-01 00:00:14.450,1.143528,-0.239827,14.606723,0.049328,0.268887,-0.258408
2024-01-01 00:00:14.460,-0.208143,-0.276653,10.299024,0.193387,0.140226,0.080109
2024-01-01 00:00:14.470,0.230881,0.031464,9.505122,-0.262735,-0.182561,-0.012389
2024-01-01 00:00:14.480,0.487574,0.151435,10.589424,-0.085085,0.028718,0.004817
2024-01-01 00:00:14.490,0.008376,0.471464,9.64968,-0.056431,-0.162625,0.163141
2024-01-01 00:00:14.500,0.121603,-0.155914,9.521444,0.113912,0.164422,0.11431
2024-01-01 00:00:14.510,0.670247,-0.156735,10.109461,-0.198305,0.028093,0.288186
2024-01-01 00:00:14.520,0.094797,0.362147,9.140087,0.228913,-0.224904,0.023078
2024-01-01 00:00:14.530,1.024413,0.093422,10.453624,0.296604,0.016225,-0.103682
2024-01-01 00:00:14.540,0.222669,0.39931,9.144726,-0.247218,-0.169883,-0.028263
2024-01-01 00:00:14.550,-0.6933,0.090949,9.148465,-0.122718,0.030243,0.06235
2024-01-01 00:00:14.560,0.296628,-0.364492,9.236895,-0.132983,-0.171815,0.152378
2024-01-01 00:00:14.570,0.150081,-0.419935,10.288485,0.658097,0.005498,-0.220055
2024-01-01 00:00:14.580,0.50784,-0.488726,9.421432,-0.107475,0.150094,0.001281
2024-01-01 00:00:14.590,0.265065,0.208546,8.960763,0.419406,-0.01061,0.241431
2024-01-01 00:00:14.600,-0.054517,0.374408,9.428422,-0.316658,-0.078178,-0.036031
2024-01-01 00:00:14.610,-0.482067,0.582549,9.789813,-0.247413,0.040655,0.139652
2024-01-01 00:00:14.620,-0.082303,0.265578,9.065987,-0.171651,0.139437,0.073968
2024-01-01 00:00:14.630,-0.334892,0.366294,9.084441,-0.211422,-0.221437,0.143379
2024-01-01 00:00:14.640,-0.228581,-0.182705,11.140117,-0.066975,0.052131,-0.121464
2024-01-01 00:00:14.650,0.231753,-0.364271,9.267844,-0.177195,0.263508,-0.12081
2024-01-01 00:00:14.660,0.657525,0.267775,9.606483,-0.204835,0.114731,0.003041
2024-01-01 00:00:14.670,0.155402,0.131569,9.578641,0.289618,0.011551,-0.229833
2024-01-01 00:00:14.680,-0.470879,0.033845,9.544545,0.305948,0.127948,-0.040461
2024-01-01 00:00:14.690,0.175062,0.122022,10.201448,0.237324,0.090499,0.037931
2024-01-01 00:00:14.700,0.471174,0.101803,10.40733,0.131,0.15072,0.267695
2024-01-01 00:00:14.710,-0.240102,0.404402,9.617249,0.023186,-0.404786,0.060408
2024-01-01 00:00:14.720,-0.052769,0.40792,9.031019,-0.124258,-0.310691,0.093784
2024-01-01 00:00:14.730,0.005783,0.171429,10.612897,-0.238289,0.200966,0.174671
2024-01-01 00:00:14.740,-0.309054,0.266428,9.749935,0.090749,-0.301056,-0.144699
2024-01-01 00:00:14.750,0.25526,0.16193,10.900103,-0.293408,0.080308,-0.024762
2024-01-01 00:00:14.760,-0.047623,-0.145268,8.395281,-0.24848,-0.07041,0.363812
2024-01-01 00:00:14.770,0.165191,0.238318,9.933104,0.288228,-0.199238,-0.011868
2024-01-01 00:00:14.780,-0.34945,-0.439266,11.018722,0.475162,0.06993,0.167465
2024-01-01 00:00:14.790,-0.172249,0.331976,9.587444,0.098324,0.040207,0.144561
2024-01-01 00:00:14.800,0.284438,-0.376275,9.667939,0.276614,0.422069,-0.221717
2024-01-01 00:00:14.810,-0.146803,0.090028,9.996172,-0.061462,-0.124962,0.046572
2024-01-01 00:00:14.820,0.679992,-0.266223,9.457959,-0.334419,0.288022,0.022012
2024-01-01 00:00:14.830,-0.157357,0.174318,9.613395,0.153043,0.070485,0.049494
2024-01-01 00:00:14.840,0.08847,-0.010686,9.597176,0.142322,-0.132204,-0.113117
2024-01-01 00:00:14.850,1.767208,-0.502348,13.264725,0.017917,0.159849,-0.167538
2024-01-01 00:00:14.860,0.841518,0.13252,14.43418,-0.060594,0.113148,-0.071402
2024-01-01 00:00:14.870,0.706682,-0.182045,13.950479,0.240553,0.007169,-0.014669
2024-01-01 00:00:14.880,0.799273,0.277561,13.817896,-0.246433,0.053259,0.177748
2024-01-01 00:00:14.890,1.897142,0.000418,14.1694,-0.193445,-0.119397,0.272597
2024-01-01 00:00:14.900,-0.217294,0.124558,9.643456,-0.252027,-0.165157,0.20949
2024-01-01 00:00:14.910,1.007291,-0.301634,9.322252,0.021243,0.151888,0.129028
2024-01-01 00:00:14.920,-0.222172,-0.18564,9.430347,-0.271973,-0.044788,-0.150651
2024-01-01 00:00:14.930,0.072667,-0.144471,9.811123,-0.171061,-0.016017,-0.061334
2024-01-01 00:00:14.940,0.607206,0.269861,9.142697,-0.176439,0.055964,0.031489
2024-01-01 00:00:14.950,0.789899,0.528374,9.494836,-0.065152,0.053058,-0.094866
