timestamp,acc_x,acc_y,acc_z,gyro_x,gyro_y,gyro_z
2024-01-01 00:00:00.000,0.024836,0.30461,9.720873,0.03827,0.358741,-0.004303
2024-01-01 00:00:00.010,0.025338,0.356292,9.905872,0.06833,0.203988,0.007816
2024-01-01 00:00:00.020,0.096777,0.376569,10.025315,0.054204,0.275386,0.01949
2024-01-01 00:00:00.030,0.172463,0.488204,10.197175,-0.053347,0.279519,0.054673
2024-01-01 00:00:00.040,0.116191,0.416862,10.35829,0.050365,0.268349,0.012465
2024-01-01 00:00:00.050,0.14734,0.316136,10.569024,0.014509,0.258851,0.017986
2024-01-01 00:00:00.060,0.268607,0.399771,10.593471,0.076073,0.259185,0.08882
2024-01-01 00:00:00.070,0.257966,0.28937,10.598295,0.148816,0.202584,0.04601
2024-01-01 00:00:00.080,0.225312,0.410873,10.909745,0.128342,0.158831,0.02996
2024-01-01 00:00:00.090,0.304249,0.321959,10.831095,0.183369,0.127298,0.061025
2024-01-01 00:00:00.100,0.281332,0.32842,10.957922,0.155498,0.085513,0.073145
2024-01-01 00:00:00.110,0.30755,0.385833,11.047046,0.085464,0.12228,0.136877
2024-01-01 00:00:00.120,0.36813,0.240526,11.059472,0.03579,0.016251,0.124844
2024-01-01 00:00:00.130,0.284338,0.21932,11.146252,0.180169,0.055923,0.138062
2024-01-01 00:00:00.140,0.316418,0.243292,11.095077,0.172333,-0.020646,0.134417
2024-01-01 00:00:00.150,0.395826,0.30675,10.968743,0.143853,-0.082543,0.144007
2024-01-01 00:00:00.160,0.393116,0.160345,11.175938,0.116677,-0.059666,0.100382
2024-01-01 00:00:00.170,0.47776,0.075373,10.964814,0.173284,-0.15982,0.120055
2024-01-01 00:00:00.180,0.433346,0.174345,10.869425,0.207888,-0.122701,0.10087
2024-01-01 00:00:00.190,0.423185,0.203734,10.875538,0.257748,-0.17301,0.128358
2024-01-01 00:00:00.200,0.580435,0.214798,10.721996,0.239955,-0.239973,0.158838
2024-01-01 00:00:00.210,0.507471,0.109732,10.625325,0.316203,-0.207344,0.145518
2024-01-01 00:00:00.220,0.531959,0.089966,10.673333,0.188484,-0.226851,0.183503
2024-01-01 00:00:00.230,0.465348,0.1455,10.323388,0.287955,-0.213212,0.112099
2024-01-01 00:00:00.240,0.515522,-0.028717,10.184052,0.249066,-0.235961,0.163028
2024-01-01 00:00:00.250,0.552576,0.022087,10.07738,0.283383,-0.268974,0.111741
2024-01-01 00:00:00.260,0.491886,0.027633,10.008806,0.227918,-0.355149,0.152671
2024-01-01 00:00:00.270,0.568736,0.01711,9.656038,0.303562,-0.177463,0.172197
2024-01-01 00:00:00.280,0.518541,-0.054286,9.473253,0.264113,-0.367071,0.143176
2024-01-01 00:00:00.290,0.530723,-0.050418,9.439933,0.213895,-0.242342,0.165254
2024-01-01 00:00:00.300,0.51008,-0.199723,9.217037,0.244928,-0.257169,0.118526
2024-01-01 00:00:00.310,0.625777,-0.131126,9.180971,0.230369,-0.322535,0.095498
2024-01-01 00:00:00.320,0.523652,-0.098107,9.130549,0.262789,-0.251509,0.159709
2024-01-01 00:00:00.330,0.460801,-0.19205,8.904379,0.174505,-0.227324,0.192417
2024-01-01 00:00:00.340,0.542405,-0.161647,8.758258,0.226386,-0.133126,0.106831
2024-01-01 00:00:00.350,0.426102,-0.163347,8.787613,0.241194,-0.206361,0.169523
2024-01-01 00:00:00.360,0.481777,-0.223274,8.77487,0.215894,-0.153736,0.129848
2024-01-01 00:00:00.370,0.355918,-0.217369,8.509255,0.273666,-0.22545,0.08372
2024-01-01 00:00:00.380,0.368497,-0.292998,8.665485,0.236386,0.011577,0.084666
2024-01-01 00:00:00.390,0.424258,-0.273318,8.636908,0.187996,-0.094164,0.113496
2024-01-01 00:00:00.400,0.429421,-0.249698,8.636542,0.189242,0.010783,0.094911
2024-01-01 00:00:00.410,0.377797,-0.288616,8.663575,0.182615,0.024523,0.061311
2024-01-01 00:00:00.420,0.338908,-0.341028,8.765248,0.176842,0.059441,0.043185
2024-01-01 00:00:00.430,0.303909,-0.314654,8.600383,0.053701,0.138698,0.061589
2024-01-01 00:00:00.440,0.218215,-0.303177,8.693666,0.117715,0.214281,0.085489
2024-01-01 00:00:00.450,0.228321,-0.45328,8.723089,0.04592,0.174007,0.071893
2024-01-01 00:00:00.460,0.212543,-0.303498,8.842558,0.170994,0.22268,0.049211
2024-01-01 00:00:00.470,0.258882,-0.387689,9.064334,0.090606,0.232253,0.062246
2024-01-01 00:00:00.480,0.192949,-0.357749,8.94535,0.070227,0.289598,0.079138
2024-01-01 00:00:00.490,0.056753,-0.326005,9.105727,0.110706,0.235206,0.051343
2024-01-01 00:00:00.500,0.129748,-0.459967,9.415185,0.072727,0.328198,0.027327
2024-01-01 00:00:00.510,0.062537,-0.431024,9.523959,-0.019254,0.342256,0.050149
2024-01-01 00:00:00.520,0.015911,-0.412787,9.555707,0.019072,0.349216,-0.015225
2024-01-01 00:00:00.530,0.048136,-0.438984,9.798609,-0.00878,0.266382,-0.001961
2024-01-01 00:00:00.540,0.036837,-0.31311,9.904151,-0.093914,0.291154,-0.010045
2024-01-01 00:00:00.550,-0.000364,-0.44138,10.142553,-0.055845,0.307605,-0.049907
2024-01-01 00:00:00.560,-0.120942,-0.423632,10.171246,-0.045078,0.219085,-0.034137
2024-01-01 00:00:00.570,-0.126223,-0.381585,10.385203,-0.056094,0.355412,-0.092457
2024-01-01 00:00:00.580,-0.1256,-0.446514,10.645597,-0.138731,0.2593,0.018594
2024-01-01 00:00:00.590,-0.124297,-0.399463,10.604582,-0.021087,0.254782,-0.075324
2024-01-01 00:00:00.600,-0.227348,-0.355772,10.672908,-0.097555,0.189099,-0.007886
2024-01-01 00:00:00.610,-0.242288,-0.378974,10.827171,-0.104034,0.125971,-0.062404
2024-01-01 00:00:00.620,-0.317135,-0.35644,10.82737,-0.098976,0.133834,-0.054459
2024-01-01 00:00:00.630,-0.349541,-0.366466,11.120452,-0.1711,0.14446,-0.093682
2024-01-01 00:00:00.640,-0.27602,-0.402782,11.001246,-0.121112,0.134799,-0.08012
2024-01-01 00:00:00.650,-0.27466,-0.296912,11.006244,-0.174023,0.075454,-0.073887
2024-01-01 00:00:00.660,-0.370719,-0.210101,10.985708,-0.211702,0.050011,-0.080187
2024-01-01 00:00:00.670,-0.340326,-0.280759,11.147735,-0.148829,-0.019315,-0.083257
2024-01-01 00:00:00.680,-0.39446,-0.253277,11.119535,-0.112935,-0.012756,-0.123561
2024-01-01 00:00:00.690,-0.465418,-0.211855,10.983516,-0.16065,0.001985,-0.132546
2024-01-01 00:00:00.700,-0.434221,-0.291061,11.025876,-0.159438,-0.070513,-0.171177
2024-01-01 00:00:00.710,-0.392962,-0.122788,10.799443,-0.239606,-0.097417,-0.112448
2024-01-01 00:00:00.720,-0.48761,-0.177402,10.860023,-0.300708,-0.153438,-0.100025
2024-01-01 00:00:00.730,-0.42187,-0.084884,10.792305,-0.152812,-0.271228,-0.087912
2024-01-01 00:00:00.740,-0.643652,-0.181514,10.790517,-0.130304,-0.273539,-0.130662
2024-01-01 00:00:00.750,-0.482367,-0.031847,10.478503,-0.160797,-0.220753,-0.165757
2024-01-01 00:00:00.760,-0.528107,-0.061457,10.314096,-0.258816,-0.262886,-0.196129
2024-01-01 00:00:00.770,-0.554573,-0.049682,10.212586,-0.303015,-0.255581,-0.11592
2024-01-01 00:00:00.780,-0.540342,-0.042487,10.038627,-0.300979,-0.205168,-0.202506
2024-01-01 00:00:00.790,-0.64774,-0.043282,10.109203,-0.333442,-0.260128,-0.159771
2024-01-01 00:00:00.800,-0.560889,0.05261,9.980234,-0.255326,-0.236849,-0.156703
2024-01-01 00:00:00.810,-0.531702,0.023066,9.735396,-0.169515,-0.2943,-0.151963
2024-01-01 00:00:00.820,-0.473423,-0.058896,9.662297,-0.255864,-0.334522,-0.148194
2024-01-01 00:00:00.830,-0.569108,0.006872,9.433499,-0.23179,-0.288136,-0.143999
2024-01-01 00:00:00.840,-0.577626,0.076496,9.278689,-0.175403,-0.312639,-0.21897
2024-01-01 00:00:00.850,-0.554448,0.124051,9.130373,-0.260823,-0.177898,-0.143931
2024-01-01 00:00:00.860,-0.473927,0.12811,9.011885,-0.134449,-0.196186,-0.208623
2024-01-01 00:00:00.870,-0.491807,0.213826,8.803228,-0.131416,-0.186331,-0.116646
2024-01-01 00:00:00.880,-0.521532,0.076735,8.850673,-0.231576,-0.124289,-0.151666
2024-01-01 00:00:00.890,-0.454476,0.202281,8.742272,-0.247122,-0.25826,-0.195658
2024-01-01 00:00:00.900,-0.458728,0.124344,8.735735,-0.175857,-0.096858,-0.150858
2024-01-01 00:00:00.910,-0.396997,0.272628,8.629791,-0.219844,-0.159068,-0.138583
2024-01-01 00:00:00.920,-0.460847,0.248512,8.571832,-0.251348,-0.059883,-0.080391
2024-01-01 00:00:00.930,-0.420976,0.291936,8.494544,-0.119844,-0.040271,-0.104444
2024-01-01 00:00:00.940,-0.401656,0.24455,8.566536,-0.112837,0.043575,-0.093862
2024-01-01 00:00:00.950,-0.431368,0.367516,8.633531,-0.155039,0.056927,-0.062252
2024-01-01 00:00:00.960,-0.318295,0.370382,8.513706,-0.214553,0.147177,-0.09373
2024-01-01 00:00:00.970,-0.293811,0.361131,8.659444,-0.20096,0.08313,-0.061065
2024-01-01 00:00:00.980,-0.279315,0.337994,8.734284,-0.121716,0.180428,-0.055731
2024-01-01 00:00:00.990,-0.263045,0.384792,8.736441,-0.139228,0.182836,-0.107135
2024-01-01 00:00:01.000,-0.292964,0.33056,8.839081,-0.118053,0.12031,-0.016409
2024-01-01 00:00:01.010,-0.213343,0.417529,9.009488,-0.036316,0.180714,-0.095057
2024-01-01 00:00:01.020,-0.178899,0.464782,9.01656,-0.03687,0.240604,-0.016596
2024-01-01 00:00:01.030,-0.170774,0.442079,9.261088,0.009516,0.321753,-0.081147
2024-01-01 00:00:01.040,-0.107171,0.356972,9.295261,-0.09458,0.303704,-0.008992
2024-01-01 00:00:01.050,-0.04701,0.415073,9.591807,-0.047711,0.232665,0.037527
2024-01-01 00:00:01.060,0.059223,0.334528,9.837866,0.022001,0.290542,-0.015958
2024-01-01 00:00:01.070,0.005888,0.428614,9.728229,0.021113,0.400874,-0.008465
2024-01-01 00:00:01.080,0.042293,0.421958,9.986253,0.08999,0.303845,0.026336
2024-01-01 00:00:01.090,0.057848,0.303995,10.029968,0.049013,0.276114,0.00691
2024-01-01 00:00:01.100,-0.002425,0.336087,10.312149,0.134912,0.307242,0.080052
2024-01-01 00:00:01.110,0.123809,0.375353,10.262657,0.08388,0.307111,0.039893
2024-01-01 00:00:01.120,0.159337,0.36846,10.529711,0.124165,0.22872,0.033029
2024-01-01 00:00:01.130,0.31014,0.315702,10.53944,0.068814,0.255785,0.034785
2024-01-01 00:00:01.140,0.207369,0.387004,10.699743,0.099345,0.190167,0.03119
2024-01-01 00:00:01.150,0.261327,0.370242,10.728376,0.157479,0.215691,0.048326
2024-01-01 00:00:01.160,0.272928,0.336838,10.957437,0.205496,0.158851,0.064388
2024-01-01 00:00:01.170,0.2437,0.296452,10.890604,0.173795,0.143038,0.067771
2024-01-01 00:00:01.180,0.385704,0.373216,11.051849,0.145188,0.047918,0.069863
2024-01-01 00:00:01.190,0.391459,0.388987,11.013819,0.229713,0.010569,0.159473
2024-01-01 00:00:01.200,0.417495,0.266421,11.048909,0.062193,0.063954,0.072173
2024-01-01 00:00:01.210,0.355254,0.243372,11.06944,0.111035,-0.022475,0.113687
2024-01-01 00:00:01.220,0.492265,0.28098,10.979067,0.225957,-0.039182,0.132901
2024-01-01 00:00:01.230,0.371981,0.220075,11.022317,0.201648,-0.102947,0.139469
2024-01-01 00:00:01.240,0.489843,0.211744,11.076946,0.239594,-0.07568,0.123833
2024-01-01 00:00:01.250,0.586866,0.235681,10.825562,0.220194,-0.182337,0.122963
2024-01-01 00:00:01.260,0.443016,0.082531,10.900019,0.25243,-0.187966,0.147876
2024-01-01 00:00:01.270,0.477732,0.222603,10.830884,0.189301,-0.168634,0.146008
2024-01-01 00:00:01.280,0.522792,0.138471,10.538113,0.263892,-0.173173,0.133452
2024-01-01 00:00:01.290,0.502617,0.091947,10.368457,0.289625,-0.278709,0.097086
2024-01-01 00:00:01.300,0.458421,0.085358,10.381192,0.304643,-0.171763,0.132132
2024-01-01 00:00:01.310,0.545703,0.064929,10.177892,0.347166,-0.2676,0.113497
2024-01-01 00:00:01.320,0.493613,-0.042993,10.230161,0.260718,-0.345029,0.129093
2024-01-01 00:00:01.330,0.57298,0.094922,9.938721,0.263377,-0.280021,0.150806
2024-01-01 00:00:01.340,0.50401,-0.001219,9.725293,0.173833,-0.319109,0.160757
2024-01-01 00:00:01.350,0.626267,-0.004584,9.551511,0.22287,-0.275616,0.203078
2024-01-01 00:00:01.360,0.506508,-0.002514,9.586584,0.238378,-0.292733,0.132697
2024-01-01 00:00:01.370,0.524589,-0.124335,9.314076,0.298285,-0.276151,0.1707
2024-01-01 00:00:01.380,0.57453,-0.072536,9.22985,0.212111,-0.310869,0.154775
2024-01-01 00:00:01.390,0.463635,-0.132193,9.177408,0.278534,-0.197562,0.18211
2024-01-01 00:00:01.400,0.526068,-0.098665,8.946556,0.233871,-0.283249,0.157658
2024-01-01 00:00:01.410,0.567797,-0.269073,8.877319,0.219523,-0.256157,0.106775
2024-01-01 00:00:01.420,0.408082,-0.188813,8.788142,0.23447,-0.154867,0.081524
2024-01-01 00:00:01.430,0.482023,-0.234515,8.766644,0.195347,-0.063226,0.138281
2024-01-01 00:00:01.440,0.468493,-0.202572,8.696851,0.185593,-0.129159,0.108373
2024-01-01 00:00:01.450,0.475731,-0.219722,8.585556,0.113233,-0.043108,0.089674
2024-01-01 00:00:01.460,0.354429,-0.296809,8.57843,0.176819,0.009958,0.075503
2024-01-01 00:00:01.470,0.328459,-0.314339,8.530779,0.155312,0.032074,0.112415
2024-01-01 00:00:01.480,0.397426,-0.300608,8.44668,0.142987,0.010948,0.146503
2024-01-01 00:00:01.490,0.361748,-0.355235,8.606991,0.178525,0.006759,0.082349
2024-01-01 00:00:01.500,0.333799,-0.282563,8.776083,0.178965,-0.015106,0.105328
2024-01-01 00:00:01.510,0.311867,-0.356266,8.608637,0.145493,0.114779,0.077262
2024-01-01 00:00:01.520,0.232799,-0.495135,8.687671,0.171044,0.217716,0.034082
2024-01-01 00:00:01.530,0.249751,-0.379303,8.76462,0.137023,0.131309,0.086991
2024-01-01 00:00:01.540,0.22331,-0.422024,8.99043,0.080091,0.248655,0.024066
2024-01-01 00:00:01.550,0.14274,-0.459923,9.078597,0.057974,0.189325,0.049319
2024-01-01 00:00:01.560,0.240932,-0.44719,9.150844,0.082752,0.262067,0.030021
2024-01-01 00:00:01.570,0.140013,-0.385481,9.219786,0.081562,0.308552,0.058516
2024-01-01 00:00:01.580,0.025034,-0.328808,9.437426,0.108346,0.25283,-0.008672
2024-01-01 00:00:01.590,0.085413,-0.382508,9.4469,0.083461,0.303039,0.026068
2024-01-01 00:00:01.600,-0.028343,-0.43005,9.728851,-0.017805,0.278421,-0.019633
2024-01-01 00:00:01.610,0.027481,-0.377112,9.93368,-0.010497,0.334978,-0.018571
2024-01-01 00:00:01.620,0.013832,-0.421667,9.909701,0.013507,0.307909,-0.121083
2024-01-01 00:00:01.630,-0.117203,-0.430876,10.030286,0.018777,0.291318,0.04199
2024-01-01 00:00:01.640,-0.05981,-0.449934,10.417617,-0.002133,0.354791,-0.012932
2024-01-01 00:00:01.650,-0.118778,-0.474527,10.374077,-0.066565,0.294562,-0.061043
2024-01-01 00:00:01.660,-0.129273,-0.39982,10.637217,-0.140145,0.207906,-0.080206
2024-01-01 00:00:01.670,-0.105908,-0.364501,10.647217,-0.141196,0.215774,-0.069619
2024-01-01 00:00:01.680,-0.242698,-0.368033,10.748091,-0.091109,0.190888,-0.041338
2024-01-01 00:00:01.690,-0.297004,-0.373548,10.88455,-0.10076,0.170637,-0.127485
2024-01-01 00:00:01.700,-0.331789,-0.388371,10.85289,-0.185531,0.262493,-0.082606
2024-01-01 00:00:01.710,-0.35511,-0.297831,10.993025,-0.140644,0.122582,-0.032604
2024-01-01 00:00:01.720,-0.3441,-0.380131,10.994595,-0.123096,-0.031415,-0.126812
2024-01-01 00:00:01.730,-0.347941,-0.260421,10.945452,-0.22347,0.008614,-0.097134
2024-01-01 00:00:01.740,-0.374662,-0.333253,11.086996,-0.12134,-0.095984,-0.039854
2024-01-01 00:00:01.750,-0.369299,-0.303708,11.030646,-0.205539,-0.050983,-0.093033
2024-01-01 00:00:01.760,-0.430756,-0.321455,11.013783,-0.133213,-0.168511,-0.113878
2024-01-01 00:00:01.770,-0.377992,-0.25436,10.887436,-0.231522,-0.146427,-0.107711
2024-01-01 00:00:01.780,-0.481614,-0.16091,11.053314,-0.264232,-0.211171,-0.139766
2024-01-01 00:00:01.790,-0.348472,-0.163559,10.922543,-0.243125,-0.146355,-0.093142
2024-01-01 00:00:01.800,-0.46763,-0.119432,10.841604,-0.231536,-0.193688,-0.148047
2024-01-01 00:00:01.810,-0.554487,-0.120679,10.638974,-0.251983,-0.204054,-0.198311
2024-01-01 00:00:01.820,-0.576129,-0.179898,10.412274,-0.248338,-0.246902,-0.154262
2024-01-01 00:00:01.830,-0.507617,-0.118752,10.583856,-0.225002,-0.330537,-0.174022
2024-01-01 00:00:01.840,-0.55024,-0.11837,10.291252,-0.253589,-0.250706,-0.155454
2024-01-01 00:00:01.850,-0.508838,0.010295,10.098068,-0.250823,-0.19203,-0.156283
2024-01-01 00:00:01.860,-0.524473,-0.092754,10.048361,-0.334614,-0.275477,-0.113569
2024-01-01 00:00:01.870,-0.553487,0.035203,9.962612,-0.230345,-0.320959,-0.129099
2024-01-01 00:00:01.880,-0.592003,0.058632,9.720809,-0.254307,-0.37067,-0.14201
2024-01-01 00:00:01.890,-0.623333,0.128882,9.679552,-0.16839,-0.340158,-0.149431
2024-01-01 00:00:01.900,-0.565958,0.040206,9.521719,-0.294084,-0.263536,-0.180029
2024-01-01 00:00:01.910,-0.494984,0.119386,9.211938,-0.334871,-0.220029,-0.212109
2024-01-01 00:00:01.920,-0.519419,0.220644,9.114157,-0.210062,-0.244374,-0.141184
2024-01-01 00:00:01.930,-0.582907,0.098104,9.123504,-0.219319,-0.197615,-0.118148
2024-01-01 00:00:01.940,-0.500665,0.074215,8.719229,-0.281932,-0.17915,-0.142157
2024-01-01 00:00:01.950,-0.477009,0.078428,8.825637,-0.302067,-0.16318,-0.151393
2024-01-01 00:00:01.960,-0.525711,0.228932,8.637856,-0.142002,-0.192811,-0.117388
2024-01-01 00:00:01.970,-0.457418,0.119341,8.643476,-0.140706,-0.120373,-0.129347
2024-01-01 00:00:01.980,-0.444179,0.214351,8.602492,-0.327596,-0.138894,-0.071361
2024-01-01 00:00:01.990,-0.484685,0.273498,8.558816,-0.217246,-0.061682,-0.079619
2024-01-01 00:00:02.000,-0.388623,0.278691,8.521187,-0.101569,-0.011229,-0.082082
2024-01-01 00:00:02.010,-0.356049,0.307578,8.472608,-0.198389,0.09133,-0.082019
2024-01-01 00:00:02.020,-0.30619,0.313308,8.755931,-0.188323,-0.023034,-0.13698
2024-01-01 00:00:02.030,-0.282667,0.380984,8.751195,-0.166573,0.101005,-0.071571
2024-01-01 00:00:02.040,-0.378101,0.283181,8.55467,-0.196598,0.184412,-0.073042
2024-01-01 00:00:02.050,-0.328905,0.309565,8.836029,-0.213427,0.180194,-0.05872
2024-01-01 00:00:02.060,-0.228087,0.316218,8.754464,-0.062754,0.213844,-0.05445
2024-01-01 00:00:02.070,-0.199101,0.406575,8.887797,-0.194324,0.229158,-0.047724
2024-01-01 00:00:02.080,-0.169216,0.419044,8.976267,-0.076259,0.289519,0.027853
2024-01-01 00:00:02.090,0.02816,0.404257,9.043814,-0.030433,0.191968,-0.047143
2024-01-01 00:00:02.100,-0.104873,0.447228,9.300379,-0.133206,0.195398,-0.008296
2024-01-01 00:00:02.110,-0.045121,0.334173,9.364911,-0.092531,0.279088,-0.04192
2024-01-01 00:00:02.120,-0.022331,0.480105,9.456146,0.028827,0.182214,0.00462
2024-01-01 00:00:02.130,-0.005351,0.47521,9.533675,0.009408,0.35868,0.017838
2024-01-01 00:00:02.140,-0.021444,0.43676,9.712692,-0.033446,0.360972,0.009383
2024-01-01 00:00:02.150,0.064527,0.488623,9.799362,0.072194,0.276931,0.057326
2024-01-01 00:00:02.160,0.020106,0.31488,10.076483,0.08703,0.274616,-0.010506
2024-01-01 00:00:02.170,0.078872,0.368299,10.120953,0.054686,0.280061,0.010123
2024-01-01 00:00:02.180,0.098099,0.353209,10.331029,0.010613,0.272901,0.039744
2024-01-01 00:00:02.190,0.157694,0.420159,10.590011,0.049146,0.259563,0.068315
2024-01-01 00:00:02.200,0.300037,0.324366,10.695254,0.098094,0.260537,0.055648
2024-01-01 00:00:02.210,0.121011,0.406239,10.70478,0.088013,0.200216,0.097038
2024-01-01 00:00:02.220,0.278019,0.427115,10.796104,0.157723,0.229356,0.046615
2024-01-01 00:00:02.230,0.191564,0.382338,11.03551,0.047238,0.175337,0.040019
2024-01-01 00:00:02.240,0.276159,0.349559,10.994043,0.06154,0.09143,0.090995
2024-01-01 00:00:02.250,0.380728,0.272617,10.977707,0.157353,0.155597,0.08667
2024-01-01 00:00:02.260,0.354897,0.265199,10.924978,0.135279,-0.01323,0.112199
2024-01-01 00:00:02.270,0.321987,0.354495,11.088792,0.1395,0.015163,0.101689
2024-01-01 00:00:02.280,0.363008,0.31445,11.124696,0.092858,0.032935,0.098556
2024-01-01 00:00:02.290,0.454278,0.256051,10.991715,0.192022,-0.086535,0.112379
2024-01-01 00:00:02.300,0.403859,0.218738,11.032491,0.197534,-0.069182,0.120968
2024-01-01 00:00:02.310,0.469764,0.11915,10.930563,0.241284,-0.090606,0.116016
2024-01-01 00:00:02.320,0.478204,0.146946,10.879568,0.219775,-0.192293,0.123704
2024-01-01 00:00:02.330,0.458692,0.275418,10.614993,0.216675,-0.182331,0.121875
2024-01-01 00:00:02.340,0.612125,0.094563,10.702194,0.288362,-0.213514,0.163407
2024-01-01 00:00:02.350,0.548541,0.146254,10.690889,0.169306,-0.257429,0.146778
2024-01-01 00:00:02.360,0.425727,0.164875,10.445181,0.266358,-0.135751,0.211426
2024-01-01 00:00:02.370,0.544632,0.029085,10.372817,0.159765,-0.306532,0.150815
2024-01-01 00:00:02.380,0.508703,0.078079,10.173378,0.204351,-0.23198,0.131236
2024-01-01 00:00:02.390,0.589033,0.092515,10.122098,0.187736,-0.311836,0.229142
2024-01-01 00:00:02.400,0.509523,0.022863,9.931453,0.28871,-0.352477,0.162177
2024-01-01 00:00:02.410,0.544261,0.142201,9.72724,0.246728,-0.294854,0.179703
2024-01-01 00:00:02.420,0.574202,-0.108103,9.762692,0.248849,-0.265263,0.167477
2024-01-01 00:00:02.430,0.589306,0.004895,9.586228,0.192854,-0.24532,0.167605
2024-01-01 00:00:02.440,0.481191,-0.079885,9.323447,0.231018,-0.202852,0.163671
2024-01-01 00:00:02.450,0.517805,-0.055607,9.277615,0.204795,-0.119459,0.112718
2024-01-01 00:00:02.460,0.502267,-0.094772,9.154607,0.25827,-0.236284,0.154484
2024-01-01 00:00:02.470,0.483022,-0.175727,9.046427,0.18485,-0.260629,0.100897
2024-01-01 00:00:02.480,0.591861,-0.149372,8.75414,0.295394,-0.180367,0.132111
2024-01-01 00:00:02.490,0.510004,-0.274917,8.877505,0.138837,-0.189066,0.111801
2024-01-01 00:00:02.500,0.411192,-0.172433,8.67263,0.175236,-0.099784,0.140061
2024-01-01 00:00:02.510,0.502978,-0.207563,8.625827,0.291626,-0.179258,0.134683
2024-01-01 00:00:02.520,0.544469,-0.209648,8.817624,0.177498,0.037273,0.133987
2024-01-01 00:00:02.530,0.469751,-0.206955,8.599435,0.124314,-0.00397,0.122654
2024-01-01 00:00:02.540,0.320488,-0.258864,8.530054,0.191161,-0.095957,0.08992
2024-01-01 00:00:02.550,0.349208,-0.286271,8.387391,0.145967,-0.012031,0.094012
2024-01-01 00:00:02.560,0.412444,-0.353149,8.694991,0.116888,0.099079,0.122821
2024-01-01 00:00:02.570,0.288192,-0.359063,8.513054,0.092286,0.151146,0.120284
2024-01-01 00:00:02.580,0.31913,-0.277358,8.593614,0.273391,0.0615,0.04658
2024-01-01 00:00:02.590,0.308012,-0.276962,8.716227,0.109823,0.191826,0.027512
2024-01-01 00:00:02.600,0.194349,-0.371568,8.939573,0.013129,0.087722,0.043838
2024-01-01 00:00:02.610,0.208306,-0.367008,8.985175,0.170723,0.206991,0.088979
2024-01-01 00:00:02.620,0.019078,-0.422914,9.01994,0.112891,0.29052,0.085849
2024-01-01 00:00:02.630,0.099158,-0.326121,9.177175,0.03003,0.227571,0.013271
2024-01-01 00:00:02.640,0.106467,-0.357239,9.233468,0.007479,0.196521,0.0417
2024-01-01 00:00:02.650,0.025015,-0.297856,9.428928,0.073403,0.292158,0.078871
2024-01-01 00:00:02.660,0.137033,-0.441881,9.565275,0.012841,0.263674,0.027572
2024-01-01 00:00:02.670,-0.048278,-0.418543,9.782008,-0.08574,0.330408,0.04898
2024-01-01 00:00:02.680,-0.031036,-0.388374,9.928431,0.085256,0.255572,0.027498
2024-01-01 00:00:02.690,-0.034728,-0.366548,10.03656,-0.040457,0.257991,-0.03856
2024-01-01 00:00:02.700,-0.001292,-0.40721,10.111466,0.041435,0.188277,-0.025705
2024-01-01 00:00:02.710,-0.176986,-0.436264,10.338667,0.016107,0.286549,-0.027646
2024-01-01 00:00:02.720,-0.07851,-0.343384,10.404376,-0.112172,0.254907,-0.034149
2024-01-01 00:00:02.730,-0.167161,-0.344902,10.449315,-0.024555,0.184817,-0.018239
2024-01-01 00:00:02.740,-0.247176,-0.418966,10.617757,-0.122618,0.231851,-0.041767
2024-01-01 00:00:02.750,-0.204742,-0.29629,10.75938,-0.196902,0.248383,-0.150226
2024-01-01 00:00:02.760,-0.246856,-0.295209,10.915068,-0.137961,0.15841,-0.109424
2024-01-01 00:00:02.770,-0.314898,-0.335443,10.903003,-0.109612,0.152429,-0.143318
2024-01-01 00:00:02.780,-0.308495,-0.32544,10.881149,-0.164948,0.120606,-0.079826
2024-01-01 00:00:02.790,-0.357274,-0.287845,11.02656,-0.168993,0.013172,-0.08497
2024-01-01 00:00:02.800,-0.357193,-0.343675,11.058563,-0.107762,0.141657,-0.090468
2024-01-01 00:00:02.810,-0.353375,-0.283096,11.07477,-0.170349,-0.019809,-0.134172
2024-01-01 00:00:02.820,-0.329462,-0.375244,11.126718,-0.227966,0.001393,-0.091257
2024-01-01 00:00:02.830,-0.491529,-0.205909,11.110769,-0.160189,-0.027666,-0.095686
2024-01-01 00:00:02.840,-0.342383,-0.309054,10.941076,-0.194223,-0.106911,-0.160118
2024-01-01 00:00:02.850,-0.56449,-0.136261,10.882467,-0.338301,-0.102021,-0.171314
2024-01-01 00:00:02.860,-0.490719,-0.207663,10.77626,-0.198187,-0.15068,-0.131767
2024-01-01 00:00:02.870,-0.468295,-0.180808,10.828663,-0.206641,-0.262221,-0.081986
2024-01-01 00:00:02.880,-0.49653,-0.180092,10.788703,-0.231076,-0.233688,-0.088257
2024-01-01 00:00:02.890,-0.552826,-0.141077,10.535764,-0.192547,-0.270453,-0.125377
2024-01-01 00:00:02.900,-0.541413,-0.033282,10.419499,-0.274987,-0.282364,-0.16672
2024-01-01 00:00:02.910,-0.563146,-0.205774,10.425351,-0.227946,-0.340363,-0.120257
2024-01-01 00:00:02.920,-0.573599,0.00557,10.210798,-0.32568,-0.230942,-0.161972
2024-01-01 00:00:02.930,-0.505414,-0.018072,10.062641,-0.228688,-0.215314,-0.172451
2024-01-01 00:00:02.940,-0.53192,-0.071898,9.786863,-0.152243,-0.2506,-0.214256
2024-01-01 00:00:02.950,-0.584401,-0.041846,9.789836,-0.299632,-0.235941,-0.146862
2024-01-01 00:00:02.960,-0.502869,0.119164,9.515632,-0.287012,-0.312547,-0.168309
2024-01-01 00:00:02.970,-0.528691,0.011372,9.356694,-0.282799,-0.318915,-0.145486
2024-01-01 00:00:02.980,-0.497748,0.024081,9.282113,-0.238223,-0.313869,-0.215815
2024-01-01 00:00:02.990,-0.499392,0.161435,9.132309,-0.294458,-0.226792,-0.139689
2024-01-01 00:00:03.000,-0.562978,0.143957,9.03944,-0.215996,-0.228136,-0.215169
2024-01-01 00:00:03.010,-0.538398,0.102156,8.830239,-0.189653,-0.220549,-0.106559
2024-01-01 00:00:03.020,-0.460128,0.181393,8.922463,-0.199416,-0.12615,-0.120023
2024-01-01 00:00:03.030,-0.452366,0.140197,8.849475,-0.307914,-0.142254,-0.140056
2024-01-01 00:00:03.040,-0.467659,0.26679,8.531428,-0.162339,-0.173792,-0.110377
2024-01-01 00:00:03.050,-0.442872,0.284353,8.70889,-0.157104,-0.133449,-0.151725
2024-01-01 00:00:03.060,-0.365435,0.276624,8.52539,-0.153636,-0.031481,-0.114915
2024-01-01 00:00:03.070,-0.437998,0.285985,8.635188,-0.167003,0.02123,-0.087544
2024-01-01 00:00:03.080,-0.358761,0.372919,8.554652,-0.164498,0.031877,-0.198133
2024-01-01 00:00:03.090,-0.372594,0.30082,8.57312,-0.113146,0.134227,-0.112276
2024-01-01 00:00:03.100,-0.348488,0.256683,8.583744,-0.057281,0.155681,-0.092753
2024-01-01 00:00:03.110,-0.256623,0.352105,8.739918,-0.189271,0.129514,-0.09086
2024-01-01 00:00:03.120,-0.243177,0.446653,8.604229,-0.075388,0.097587,-0.033864
2024-01-01 00:00:03.130,-0.21568,0.303155,8.827693,-0.120836,0.104151,-0.103632
2024-01-01 00:00:03.140,-0.162106,0.346143,8.957021,-0.109838,0.178082,-0.080648
2024-01-01 00:00:03.150,-0.196572,0.394109,9.029014,-0.166655,0.260197,-0.111373
2024-01-01 00:00:03.160,-0.133087,0.378377,9.272006,-0.090232,0.335893,-0.000287
2024-01-01 00:00:03.170,-0.151684,0.338431,9.167995,-0.111759,0.284094,-0.044526
2024-01-01 00:00:03.180,-0.088481,0.44878,9.419424,-0.070779,0.336698,-0.041704
2024-01-01 00:00:03.190,-0.079354,0.512478,9.473307,-0.088022,0.277209,-0.021442
2024-01-01 00:00:03.200,-0.035904,0.408707,9.723936,-0.04097,0.327844,0.007972
2024-01-01 00:00:03.210,0.021237,0.354749,9.770658,-0.024179,0.341024,0.008097
2024-01-01 00:00:03.220,-0.017169,0.322179,9.886785,0.015629,0.199902,0.085911
2024-01-01 00:00:03.230,0.160542,0.410826,10.167361,-0.055318,0.273125,0.02887
2024-01-01 00:00:03.240,0.03761,0.450051,10.165131,-0.032317,0.332156,0.010018
2024-01-01 00:00:03.250,0.058887,0.414187,10.227594,0.072458,0.285353,0.015776
2024-01-01 00:00:03.260,0.208776,0.384536,10.428122,0.028706,0.195027,0.029364
2024-01-01 00:00:03.270,0.221209,0.348097,10.63878,0.136284,0.113063,0.004479
2024-01-01 00:00:03.280,0.242961,0.314557,10.809689,0.107516,0.192771,0.058947
2024-01-01 00:00:03.290,0.272574,0.401237,10.804067,0.139955,0.181069,0.089274
2024-01-01 00:00:03.300,0.269115,0.394284,10.983932,0.193138,0.1115,0.055161
2024-01-01 00:00:03.310,0.252508,0.259206,10.838427,0.119683,0.131757,0.05688
2024-01-01 00:00:03.320,0.32778,0.402724,10.964584,0.118544,0.117115,0.133839
2024-01-01 00:00:03.330,0.315636,0.337562,11.013555,0.202446,0.091261,0.052522
2024-01-01 00:00:03.340,0.422552,0.363402,11.0472,0.195383,-0.094933,0.03991
2024-01-01 00:00:03.350,0.389458,0.20987,11.065674,0.171002,-0.07803,0.073634
2024-01-01 00:00:03.360,0.377186,0.191286,11.099622,0.259782,-0.062556,0.067913
2024-01-01 00:00:03.370,0.422601,0.233836,10.97719,0.188783,-0.053074,0.131224
2024-01-01 00:00:03.380,0.478016,0.2473,10.975779,0.209534,-0.090455,0.113916
2024-01-01 00:00:03.390,0.446309,0.292091,10.897047,0.216741,-0.122977,0.122817
2024-01-01 00:00:03.400,0.448877,0.216993,10.747585,0.175992,-0.195379,0.168221
2024-01-01 00:00:03.410,0.515979,0.148346,10.719647,0.232877,-0.219804,0.116658
2024-01-01 00:00:03.420,0.528115,0.087401,10.611695,0.304323,-0.264255,0.163944
2024-01-01 00:00:03.430,0.500817,0.17798,10.493245,0.261414,-0.210712,0.188839
2024-01-01 00:00:03.440,0.511099,0.045605,10.382676,0.244576,-0.313002,0.132144
2024-01-01 00:00:03.450,0.552899,0.152301,10.252031,0.237956,-0.238659,0.169737
2024-01-01 00:00:03.460,0.473676,0.033452,10.071239,0.264762,-0.281085,0.141676
2024-01-01 00:00:03.470,0.478611,0.10383,10.063416,0.287027,-0.300038,0.177446
2024-01-01 00:00:03.480,0.514077,0.034793,9.721732,0.280461,-0.332833,0.102855
2024-01-01 00:00:03.490,0.538448,-0.029461,9.611231,0.233007,-0.36586,0.100395
2024-01-01 00:00:03.500,0.561898,-0.07196,9.746865,0.264581,-0.324451,0.137267
2024-01-01 00:00:03.510,0.615472,-0.086257,9.300915,0.270226,-0.298537,0.12107
2024-01-01 00:00:03.520,0.578075,-0.070778,9.141001,0.192909,-0.386577,0.13046
2024-01-01 00:00:03.530,0.51884,-0.111002,9.181118,0.247883,-0.260395,0.137097
2024-01-01 00:00:03.540,0.515719,-0.166821,8.838706,0.126785,-0.183265,0.16251
2024-01-01 00:00:03.550,0.454597,-0.16721,8.879645,0.253547,-0.176921,0.125422
2024-01-01 00:00:03.560,0.490115,-0.176251,8.976261,0.256218,-0.203067,0.109204
2024-01-01 00:00:03.570,0.461235,-0.307248,8.600957,0.25359,-0.146434,0.119182
2024-01-01 00:00:03.580,0.474795,-0.197843,8.500881,0.188729,-0.145066,0.102014
2024-01-01 00:00:03.590,0.398709,-0.288918,8.490215,0.215484,-0.076685,0.091999
2024-01-01 00:00:03.600,0.445935,-0.315953,8.649233,0.262092,0.027175,0.066146
2024-01-01 00:00:03.610,0.475056,-0.36012,8.651515,0.251788,0.033573,0.110744
2024-01-01 00:00:03.620,0.370062,-0.381964,8.521866,0.169223,0.04637,0.085348
2024-01-01 00:00:03.630,0.371374,-0.375553,8.636024,0.166643,0.030588,0.124794
2024-01-01 00:00:03.640,0.360375,-0.357683,8.727981,0.203667,0.126872,0.045451
2024-01-01 00:00:03.650,0.279265,-0.237912,8.811554,0.061017,0.037945,0.065372
2024-01-01 00:00:03.660,0.282958,-0.374057,8.716364,0.107371,0.140903,0.128502
2024-01-01 00:00:03.670,0.243876,-0.349866,8.634229,0.177345,0.211826,0.038152
2024-01-01 00:00:03.680,0.218786,-0.348486,8.848592,0.145988,0.246269,0.051241
2024-01-01 00:00:03.690,0.14517,-0.370445,8.988354,0.102018,0.266472,0.013658
2024-01-01 00:00:03.700,0.154333,-0.388061,9.120851,-0.005697,0.268245,0.001304
2024-01-01 00:00:03.710,0.146767,-0.449822,9.254798,0.052899,0.260756,0.079656
2024-01-01 00:00:03.720,0.162765,-0.322037,9.49503,0.011508,0.310758,0.029733
2024-01-01 00:00:03.730,0.106201,-0.307391,9.648727,0.043023,0.24563,0.019893
2024-01-01 00:00:03.740,0.133726,-0.483683,9.677914,-0.028619,0.256418,-0.04378
2024-01-01 00:00:03.750,-0.044561,-0.451176,9.926029,-0.054101,0.303011,0.009073
2024-01-01 00:00:03.760,0.005184,-0.413013,10.012879,-0.120713,0.30573,0.024241
2024-01-01 00:00:03.770,-0.061372,-0.444923,10.133145,0.029027,0.19885,0.015246
2024-01-01 00:00:03.780,0.007087,-0.367707,10.339853,-0.066535,0.301958,-0.007878
2024-01-01 00:00:03.790,-0.17433,-0.424376,10.406165,-0.053013,0.303067,-0.070407
2024-01-01 00:00:03.800,-0.206951,-0.273331,10.689944,-0.075096,0.242158,-0.035597
2024-01-01 00:00:03.810,-0.225418,-0.314364,10.525342,-0.142212,0.342955,-0.033277
2024-01-01 00:00:03.820,-0.331453,-0.354284,10.702875,-0.165343,0.165209,-0.115267
2024-01-01 00:00:03.830,-0.280581,-0.303329,10.824793,-0.165854,0.153684,-0.102991
2024-01-01 00:00:03.840,-0.32041,-0.287928,10.9468,-0.164546,0.122005,-0.050388
2024-01-01 00:00:03.850,-0.302122,-0.358784,11.074657,-0.122416,0.10602,-0.058166
2024-01-01 00:00:03.860,-0.318676,-0.357624,11.016846,-0.192406,0.059953,-0.138029
2024-01-01 00:00:03.870,-0.266921,-0.298041,10.933971,-0.076644,-0.028442,-0.07453
2024-01-01 00:00:03.880,-0.336934,-0.242963,11.127077,-0.123395,-0.020496,-0.101992
2024-01-01 00:00:03.890,-0.435702,-0.262204,11.114811,-0.144517,-0.033211,-0.087531
2024-01-01 00:00:03.900,-0.47278,-0.330192,10.876688,-0.200464,-0.001672,-0.135724
2024-01-01 00:00:03.910,-0.422792,-0.272804,10.992546,-0.127644,0.013108,-0.102659
2024-01-01 00:00:03.920,-0.53139,-0.216882,10.810184,-0.222436,-0.0628,-0.101606
2024-01-01 00:00:03.930,-0.390193,-0.196753,10.813261,-0.220548,-0.199129,-0.141931
2024-01-01 00:00:03.940,-0.437524,-0.073464,10.708716,-0.217181,-0.223732,-0.134875
2024-01-01 00:00:03.950,-0.532976,-0.219921,10.746835,-0.196508,-0.222891,-0.158415
2024-01-01 00:00:03.960,-0.606442,-0.103354,10.580598,-0.204875,-0.148723,-0.092483
2024-01-01 00:00:03.970,-0.462567,-0.031746,10.347091,-0.264784,-0.265976,-0.148225
2024-01-01 00:00:03.980,-0.543638,0.030167,10.390229,-0.271155,-0.340289,-0.174364
2024-01-01 00:00:03.990,-0.481819,-0.080541,10.067993,-0.215146,-0.311414,-0.169759
2024-01-01 00:00:04.000,-0.62736,-0.012459,10.066853,-0.213165,-0.257005,-0.145553
2024-01-01 00:00:04.010,-0.57965,0.014877,9.8299,-0.269523,-0.264808,-0.127313
2024-01-01 00:00:04.020,-0.549571,0.019628,9.719175,-0.329284,-0.309647,-0.190029
2024-01-01 00:00:04.030,-0.545743,0.028344,9.643026,-0.259499,-0.261674,-0.09405
2024-01-01 00:00:04.040,-0.566969,0.078402,9.501506,-0.216308,-0.401644,-0.13923
2024-01-01 00:00:04.050,-0.507822,-0.046887,9.428671,-0.154713,-0.270973,-0.132997
2024-01-01 00:00:04.060,-0.58499,0.136677,9.183772,-0.301538,-0.217511,-0.1479
2024-01-01 00:00:04.070,-0.529543,0.131377,9.092031,-0.258794,-0.282985,-0.141901
2024-01-01 00:00:04.080,-0.505426,0.136009,8.91987,-0.251943,-0.260637,-0.143932
2024-01-01 00:00:04.090,-0.472975,0.271034,8.868584,-0.15889,-0.28661,-0.105474
2024-01-01 00:00:04.100,-0.448657,0.155922,8.801469,-0.221855,-0.085602,-0.132303
2024-01-01 00:00:04.110,-0.524344,0.18984,8.685085,-0.258144,-0.170643,-0.104655
2024-01-01 00:00:04.120,-0.52708,0.329173,8.490654,-0.176781,-0.09027,-0.135845
2024-01-01 00:00:04.130,-0.367204,0.206805,8.619638,-0.216181,-0.038405,-0.1117
2024-01-01 00:00:04.140,-0.393701,0.238859,8.597189,-0.247727,0.041667,-0.136022
2024-01-01 00:00:04.150,-0.425558,0.276054,8.505596,-0.221063,-0.006501,-0.069359
2024-01-01 00:00:04.160,-0.287058,0.341507,8.466438,-0.079032,0.009337,-0.124453
2024-01-01 00:00:04.170,-0.334058,0.324895,8.713505,-0.135263,0.079577,-0.102434
2024-01-01 00:00:04.180,-0.254934,0.263825,8.677701,-0.137293,0.168768,-0.095058
2024-01-01 00:00:04.190,-0.2835,0.31467,8.679125,-0.142893,0.128257,-0.088857
2024-01-01 00:00:04.200,-0.155827,0.322557,8.680857,-0.103058,0.119342,-0.048925
2024-01-01 00:00:04.210,-0.142196,0.359497,8.794722,-0.090517,0.11807,-0.072217
2024-01-01 00:00:04.220,-0.212719,0.393832,9.066382,-0.076424,0.159382,-0.012801
2024-01-01 00:00:04.230,-0.12131,0.40135,9.086557,-0.07148,0.285973,-0.070887
2024-01-01 00:00:04.240,-0.106652,0.298229,9.154968,-0.019706,0.24569,-0.032806
2024-01-01 00:00:04.250,-0.039045,0.445486,9.371665,-0.047698,0.246713,-0.052585
2024-01-01 00:00:04.260,-0.123908,0.408825,9.404202,-0.083288,0.252847,-0.008006
2024-01-01 00:00:04.270,-0.009284,0.467969,9.732572,-0.050433,0.300484,-0.012366
2024-01-01 00:00:04.280,0.04156,0.422125,9.866595,-0.104115,0.287771,-0.00775
2024-01-01 00:00:04.290,-0.067034,0.454777,9.867621,0.110842,0.285477,0.041355
2024-01-01 00:00:04.300,-0.006067,0.421459,9.999924,0.067272,0.361874,-0.00515
2024-01-01 00:00:04.310,-0.016856,0.462494,9.982734,-0.002819,0.362535,0.040806
2024-01-01 00:00:04.320,0.103352,0.416985,10.210368,0.039009,0.19243,0.008792
2024-01-01 00:00:04.330,0.184014,0.380322,10.351309,0.035491,0.272853,0.043782
2024-01-01 00:00:04.340,0.25406,0.491859,10.589936,0.158465,0.197646,0.012935
2024-01-01 00:00:04.350,0.212836,0.414407,10.663097,0.024066,0.200839,0.03716
2024-01-01 00:00:04.360,0.320031,0.389087,10.679551,0.114179,0.202545,0.062609
2024-01-01 00:00:04.370,0.198244,0.285789,10.849226,0.11605,0.147701,0.127325
2024-01-01 00:00:04.380,0.209808,0.27319,10.982084,0.175422,0.138938,0.083472
2024-01-01 00:00:04.390,0.318913,0.33908,11.038258,0.141022,0.12839,0.137374
2024-01-01 00:00:04.400,0.3665,0.317443,10.882117,0.069952,0.075493,0.101327
2024-01-01 00:00:04.410,0.370073,0.264116,11.045053,0.156402,-0.006391,0.089762
2024-01-01 00:00:04.420,0.291467,0.285512,10.948742,0.130864,-0.040679,0.153864
2024-01-01 00:00:04.430,0.412156,0.340576,11.118458,0.193348,-0.116247,0.126732
2024-01-01 00:00:04.440,0.371728,0.277699,11.078957,0.270323,-0.121393,0.099887
2024-01-01 00:00:04.450,0.48927,0.166825,10.897698,0.120204,-0.013945,0.138422
2024-01-01 00:00:04.460,0.491383,0.198477,10.845623,0.175013,-0.183459,0.120237
2024-01-01 00:00:04.470,0.441697,0.143279,10.792284,0.194498,-0.23336,0.073608
2024-01-01 00:00:04.480,0.476955,0.142985,10.557222,0.209395,-0.185138,0.165165
2024-01-01 00:00:04.490,0.461914,0.119974,10.659828,0.27104,-0.231329,0.173268
2024-01-01 00:00:04.500,0.522196,0.094573,10.495308,0.230109,-0.257161,0.19841
2024-01-01 00:00:04.510,0.581734,0.033091,10.469208,0.263507,-0.195098,0.158294
2024-01-01 00:00:04.520,0.4915,0.066527,10.170181,0.214523,-0.252609,0.140025
2024-01-01 00:00:04.530,0.570937,0.021691,10.068821,0.259557,-0.317229,0.173886
2024-01-01 00:00:04.540,0.522291,-0.12011,9.853884,0.288346,-0.318618,0.175168
2024-01-01 00:00:04.550,0.510342,0.105561,9.747857,0.213378,-0.325098,0.199144
2024-01-01 00:00:04.560,0.543922,0.03389,9.587186,0.288738,-0.25468,0.148463
2024-01-01 00:00:04.570,0.49491,-0.062752,9.61673,0.251106,-0.308168,0.144125
2024-01-01 00:00:04.580,0.514506,-0.066235,9.340254,0.298722,-0.372736,0.126403
2024-01-01 00:00:04.590,0.475945,-0.148765,9.270804,0.233492,-0.271918,0.162262
2024-01-01 00:00:04.600,0.625882,-0.028093,9.102717,0.258901,-0.32907,0.097456
2024-01-01 00:00:04.610,0.5194,-0.040323,8.913238,0.233259,-0.122255,0.164456
2024-01-01 00:00:04.620,0.470859,-0.149196,8.893886,0.225119,-0.255814,0.155593
2024-01-01 00:00:04.630,0.503013,-0.127157,8.860248,0.236726,-0.188833,0.15182
2024-01-01 00:00:04.640,0.471472,-0.190258,8.634391,0.243699,-0.138554,0.134262
2024-01-01 00:00:04.650,0.449172,-0.285862,8.729274,0.146713,-0.134537,0.171504
2024-01-01 00:00:04.660,0.472477,-0.258867,8.545856,0.272485,-0.101594,0.146642
2024-01-01 00:00:04.670,0.459671,-0.250109,8.540936,0.098742,-0.031792,0.096823
2024-01-01 00:00:04.680,0.373847,-0.29698,8.604693,0.147747,0.058364,0.091517
2024-01-01 00:00:04.690,0.34878,-0.301788,8.50899,0.16691,0.055613,0.076584
2024-01-01 00:00:04.700,0.339717,-0.311027,8.582062,0.181286,0.12611,0.112939
2024-01-01 00:00:04.710,0.213056,-0.325048,8.587803,0.227969,0.034082,0.059492
2024-01-01 00:00:04.720,0.225945,-0.331833,8.673713,0.044224,0.135321,0.114785
2024-01-01 00:00:04.730,0.342563,-0.399767,8.539062,0.099261,0.158612,0.114476
2024-01-01 00:00:04.740,0.328039,-0.393686,8.664165,0.005381,0.197727,0.040663
2024-01-01 00:00:04.750,0.204064,-0.431931,8.954582,0.099997,0.275828,0.053483
2024-01-01 00:00:04.760,0.215323,-0.327412,9.095488,0.098355,0.219974,0.051361
2024-01-01 00:00:04.770,0.171396,-0.488891,9.057853,0.150373,0.231558,0.06902
2024-01-01 00:00:04.780,0.27858,-0.331915,9.238691,0.062684,0.295888,0.082272
2024-01-01 00:00:04.790,0.148987,-0.324922,9.416901,0.094478,0.193932,-0.025199
2024-01-01 00:00:04.800,0.054665,-0.412636,9.589623,0.056947,0.280762,0.007108
2024-01-01 00:00:04.810,-0.018873,-0.529604,9.516587,-0.008624,0.291633,-9.8e-05
2024-01-01 00:00:04.820,-0.083675,-0.418058,9.754358,-0.071972,0.25396,-0.042935
2024-01-01 00:00:04.830,-0.025425,-0.40237,9.944866,-0.002431,0.350339,-0.024262
2024-01-01 00:00:04.840,-0.105539,-0.447486,10.171733,-0.105388,0.237791,-0.005636
2024-01-01 00:00:04.850,-0.170724,-0.419146,10.455164,0.019483,0.273526,-0.035527
2024-01-01 00:00:04.860,-0.163487,-0.31195,10.370733,-0.06772,0.280537,-0.082109
2024-01-01 00:00:04.870,-0.216331,-0.348952,10.402135,-0.013993,0.315455,0.041972
2024-01-01 00:00:04.880,-0.108434,-0.420849,10.662902,-0.111643,0.22575,-0.044594
2024-01-01 00:00:04.890,-0.178582,-0.445634,10.841139,-0.087768,0.248468,-0.057376
2024-01-01 00:00:04.900,-0.25217,-0.37198,10.83611,-0.103974,0.2093,-0.101603
2024-01-01 00:00:04.910,-0.206015,-0.354953,10.832952,-0.129531,0.150655,-0.068546
2024-01-01 00:00:04.920,-0.303421,-0.306936,11.045071,-0.16131,0.058231,-0.088733
2024-01-01 00:00:04.930,-0.376573,-0.344836,11.06853,-0.131972,0.007653,-0.147613
2024-01-01 00:00:04.940,-0.282425,-0.277724,10.963793,-0.2093,0.05029,-0.129903
2024-01-01 00:00:04.950,-0.355473,-0.190727,11.089829,-0.234299,-0.017206,-0.080448
2024-01-01 00:00:04.960,-0.456803,-0.229906,11.135348,-0.121923,0.02072,-0.052118
2024-01-01 00:00:04.970,-0.435585,-0.255351,11.129238,-0.157309,-0.022775,-0.105186
2024-01-01 00:00:04.980,-0.489511,-0.243498,10.991646,-0.19931,-0.103297,-0.08847
2024-01-01 00:00:04.990,-0.532998,-0.232762,10.914265,-0.127587,-0.184658,-0.131179
2024-01-01 00:00:05.000,-0.43408,-0.135744,10.97146,-0.231747,-0.132196,-0.133612
2024-01-01 00:00:05.010,-0.399796,-0.20532,10.692207,-0.158986,-0.237422,-0.102344
2024-01-01 00:00:05.020,-0.578369,-0.150272,10.726383,-0.222331,-0.250674,-0.088782
2024-01-01 00:00:05.030,-0.491716,-0.128027,10.471849,-0.28754,-0.285022,-0.102748
2024-01-01 00:00:05.040,-0.562031,-0.133281,10.546225,-0.148279,-0.263029,-0.1764
2024-01-01 00:00:05.050,-0.561668,-0.154048,10.310941,-0.194697,-0.214125,-0.148548
2024-01-01 00:00:05.060,-0.572894,-0.046214,10.296487,-0.252994,-0.285668,-0.13984
2024-01-01 00:00:05.070,-0.590567,-0.042137,10.092434,-0.212445,-0.316432,-0.157072
2024-01-01 00:00:05.080,-0.547151,0.009336,9.81004,-0.269993,-0.375359,-0.138249
2024-01-01 00:00:05.090,-0.591443,-0.018891,9.875298,-0.208495,-0.272166,-0.125354
2024-01-01 00:00:05.100,-0.534799,0.092268,9.739527,-0.368791,-0.335364,-0.119458
2024-01-01 00:00:05.110,-0.547372,0.010719,9.542785,-0.298654,-0.282962,-0.098022
2024-01-01 00:00:05.120,-0.551471,0.163302,9.272697,-0.196275,-0.295071,-0.157026
2024-01-01 00:00:05.130,-0.577708,0.013194,9.177117,-0.254451,-0.220158,-0.186102
2024-01-01 00:00:05.140,-0.552144,0.144843,9.089575,-0.227489,-0.251032,-0.131972
2024-01-01 00:00:05.150,-0.474709,0.168982,8.908055,-0.300284,-0.223874,-0.083253
2024-01-01 00:00:05.160,-0.474843,0.127038,8.997782,-0.134829,-0.17136,-0.150643
2024-01-01 00:00:05.170,-0.534456,0.209067,8.785017,-0.161191,-0.062328,-0.111825
2024-01-01 00:00:05.180,-0.46463,0.272208,8.482536,-0.223487,-0.092975,-0.107199
2024-01-01 00:00:05.190,-0.41443,0.11706,8.666569,-0.225689,-0.109659,-0.117529
2024-01-01 00:00:05.200,-0.516316,0.271922,8.568285,-0.145268,-0.071454,-0.117841
2024-01-01 00:00:05.210,-0.385035,0.140157,8.563556,-0.088241,-0.063257,-0.140122
2024-01-01 00:00:05.220,-0.423272,0.23366,8.530536,-0.129649,-0.049404,-0.174852
2024-01-01 00:00:05.230,-0.338207,0.379555,8.632256,-0.058108,0.005594,-0.133375
2024-01-01 00:00:05.240,-0.380234,0.284135,8.682022,-0.201604,0.029302,-0.105001
2024-01-01 00:00:05.250,-0.406471,0.268579,8.656592,-0.184709,0.134322,-0.053321
2024-01-01 00:00:05.260,-0.370672,0.330299,8.66448,-0.190945,0.08044,-0.081992
2024-01-01 00:00:05.270,-0.258963,0.455344,8.761377,-0.096715,0.231164,-0.086853
2024-01-01 00:00:05.280,-0.219554,0.270905,8.853689,-0.09692,0.230346,-0.09015
2024-01-01 00:00:05.290,-0.248129,0.319217,8.888538,-0.099831,0.219358,-0.035636
2024-01-01 00:00:05.300,-0.140658,0.454668,9.11145,-0.037986,0.240935,-0.006319
2024-01-01 00:00:05.310,-0.224744,0.479388,9.224588,-0.002778,0.232328,-0.006734
2024-01-01 00:00:05.320,-0.113564,0.386708,9.442226,-0.126402,0.28939,-0.011887
2024-01-01 00:00:05.330,-0.139025,0.333955,9.557378,-0.065519,0.34219,-0.06567
2024-01-01 00:00:05.340,-0.079009,0.503365,9.544912,0.019909,0.260569,-0.023209
2024-01-01 00:00:05.350,-0.011831,0.479589,9.811097,-0.029842,0.22293,0.054546
2024-01-01 00:00:05.360,-0.024956,0.433732,9.815992,-0.031699,0.334514,0.038585
2024-01-01 00:00:05.370,0.03104,0.357706,10.093209,0.073776,0.311206,-0.032416
2024-01-01 00:00:05.380,0.132613,0.393045,10.138542,-0.027067,0.230556,0.020777
2024-01-01 00:00:05.390,0.085201,0.383288,10.23526,0.03676,0.237533,0.041996
2024-01-01 00:00:05.400,0.187184,0.402312,10.469798,0.082523,0.215112,0.01679
2024-01-01 00:00:05.410,0.119768,0.451455,10.354937,0.051424,0.202156,-0.021207
2024-01-01 00:00:05.420,0.232991,0.414707,10.539893,0.133022,0.199235,0.059283
2024-01-01 00:00:05.430,0.308117,0.307423,10.764875,0.078846,0.176166,0.040741
2024-01-01 00:00:05.440,0.14118,0.419428,10.871444,0.190778,0.128421,0.048693
2024-01-01 00:00:05.450,0.252731,0.354365,10.906568,0.126702,0.092305,0.069153
2024-01-01 00:00:05.460,0.348236,0.360002,10.865535,0.178737,0.086237,0.083094
2024-01-01 00:00:05.470,0.334937,0.384795,10.965979,0.19416,0.07218,0.093843
2024-01-01 00:00:05.480,0.388166,0.240636,11.085428,0.136627,0.013222,0.074283
2024-01-01 00:00:05.490,0.362657,0.278151,11.106282,0.075897,0.051812,0.100536
2024-01-01 00:00:05.500,0.419081,0.236134,11.046861,0.206561,-0.015791,0.060391
2024-01-01 00:00:05.510,0.427436,0.166173,11.112095,0.201442,-0.155245,0.128028
2024-01-01 00:00:05.520,0.51258,0.24292,11.006092,0.234241,-0.082982,0.038182
2024-01-01 00:00:05.530,0.484319,0.331405,10.853243,0.203036,-0.110855,0.119933
2024-01-01 00:00:05.540,0.504262,0.093357,10.814166,0.200016,-0.192892,0.160498
2024-01-01 00:00:05.550,0.480895,0.162642,10.633823,0.328373,-0.273584,0.104989
2024-01-01 00:00:05.560,0.489489,0.174614,10.633973,0.159959,-0.223356,0.161639
2024-01-01 00:00:05.570,0.502854,0.12658,10.616712,0.275098,-0.246001,0.177712
2024-01-01 00:00:05.580,0.553012,0.092195,10.457815,0.213674,-0.320176,0.046206
2024-01-01 00:00:05.590,0.519212,0.009979,10.382243,0.228784,-0.351501,0.142803
2024-01-01 00:00:05.600,0.559863,0.06341,10.106615,0.232042,-0.294327,0.062465
2024-01-01 00:00:05.610,0.65238,-0.009415,10.094884,0.209196,-0.308624,0.146075
2024-01-01 00:00:05.620,0.593514,-0.104518,9.825645,0.278542,-0.32077,0.149773
2024-01-01 00:00:05.630,0.533111,0.041245,9.812321,0.319265,-0.302889,0.075363
2024-01-01 00:00:05.640,0.607037,0.006036,9.547918,0.272126,-0.34856,0.206921
2024-01-01 00:00:05.650,0.522255,-0.062555,9.464898,0.251832,-0.30583,0.156578
2024-01-01 00:00:05.660,0.434566,-0.076715,9.390506,0.194529,-0.244182,0.12084
2024-01-01 00:00:05.670,0.478036,-0.05718,9.128594,0.266041,-0.271381,0.188081
2024-01-01 00:00:05.680,0.42505,-0.122025,9.04227,0.34354,-0.317024,0.087565
2024-01-01 00:00:05.690,0.489378,-0.109928,9.019438,0.211399,-0.233391,0.101385
2024-01-01 00:00:05.700,0.494495,-0.191356,8.809511,0.205553,-0.236711,0.065627
2024-01-01 00:00:05.710,0.562317,-0.131628,8.631917,0.189443,-0.140773,0.18453
2024-01-01 00:00:05.720,0.478116,-0.201255,8.841216,0.185424,-0.106995,0.135907
2024-01-01 00:00:05.730,0.432499,-0.226911,8.580064,0.064305,-0.172992,0.140724
2024-01-01 00:00:05.740,0.465084,-0.318621,8.594616,0.212803,-0.01798,0.124561
2024-01-01 00:00:05.750,0.291758,-0.258397,8.655558,0.140593,-0.076648,0.126935
2024-01-01 00:00:05.760,0.391412,-0.331031,8.51271,0.092046,0.092102,0.105878
2024-01-01 00:00:05.770,0.394184,-0.337039,8.496246,0.199314,0.046691,0.105121
2024-01-01 00:00:05.780,0.256498,-0.360536,8.629622,0.096093,0.021121,0.093345
2024-01-01 00:00:05.790,0.361263,-0.38662,8.514838,0.121283,0.059505,0.064672
2024-01-01 00:00:05.800,0.293603,-0.239464,8.700054,0.199085,0.165569,0.074059
2024-01-01 00:00:05.810,0.227564,-0.29034,8.822442,0.042416,0.15812,0.075934
2024-01-01 00:00:05.820,0.250763,-0.270865,8.874848,0.022972,0.19993,0.063078
2024-01-01 00:00:05.830,0.3027,-0.436742,8.879139,0.09945,0.309664,0.007257
2024-01-01 00:00:05.840,0.167649,-0.379455,9.247424,0.129545,0.215174,0.002893
2024-01-01 00:00:05.850,0.139811,-0.453796,9.254941,-0.020808,0.270805,0.067231
2024-01-01 00:00:05.860,0.072839,-0.428669,9.495666,0.063933,0.352786,0.016919
2024-01-01 00:00:05.870,0.021391,-0.443199,9.500785,0.058088,0.305431,0.034964
2024-01-01 00:00:05.880,0.073257,-0.337354,9.595568,-0.088531,0.217672,-0.024107
2024-01-01 00:00:05.890,-0.043317,-0.419811,9.833865,0.039692,0.325269,-0.044334
2024-01-01 00:00:05.900,-0.029185,-0.345871,9.941398,0.028938,0.239721,-0.034243
2024-01-01 00:00:05.910,-0.088784,-0.366999,10.008725,-0.04509,0.361986,-0.024377
2024-01-01 00:00:05.920,-0.072867,-0.278572,10.360785,0.01861,0.240265,-0.046359
2024-01-01 00:00:05.930,-0.111715,-0.46292,10.327718,-0.00154,0.415776,0.0038
2024-01-01 00:00:05.940,-0.10766,-0.319841,10.356771,-0.067361,0.322885,-0.038124
2024-01-01 00:00:05.950,-0.215629,-0.318018,10.727192,-0.108994,0.18847,0.003615
2024-01-01 00:00:05.960,-0.233558,-0.415255,10.686387,-0.148671,0.204945,-0.047885
2024-01-01 00:00:05.970,-0.298181,-0.306213,10.771289,-0.11517,0.214465,-0.140352
2024-01-01 00:00:05.980,-0.299779,-0.32852,10.757977,-0.097677,0.186373,-0.044018
2024-01-01 00:00:05.990,-0.286065,-0.344269,11.102795,-0.154813,0.137689,-0.128449
2024-01-01 00:00:06.000,-0.293397,-0.360515,10.908807,-0.260441,0.144974,-0.083424
2024-01-01 00:00:06.010,-0.402531,-0.340598,11.048555,-0.098575,0.041877,-0.120447
2024-01-01 00:00:06.020,-0.336892,-0.186427,11.131831,-0.163385,-0.005311,-0.039457
2024-01-01 00:00:06.030,-0.335231,-0.272165,11.090324,-0.202169,-0.039497,-0.066725
2024-01-01 00:00:06.040,-0.403595,-0.215437,11.032434,-0.149991,-0.01411,-0.137964
2024-01-01 00:00:06.050,-0.35022,-0.275556,10.864814,-0.125614,-0.072861,-0.124928
2024-01-01 00:00:06.060,-0.501015,-0.25566,10.883529,-0.350244,-0.109393,-0.118751
2024-01-01 00:00:06.070,-0.541232,-0.142479,10.895033,-0.196014,-0.115327,-0.104734
2024-01-01 00:00:06.080,-0.582961,-0.243291,10.734021,-0.295889,-0.286641,-0.13386
2024-01-01 00:00:06.090,-0.432549,-0.175201,10.716674,-0.205658,-0.195052,-0.169115
2024-01-01 00:00:06.100,-0.486212,-0.130837,10.646108,-0.229481,-0.223198,-0.163053
2024-01-01 00:00:06.110,-0.531503,-0.104611,10.548982,-0.208543,-0.171037,-0.144332
2024-01-01 00:00:06.120,-0.522699,-0.096396,10.245196,-0.268916,-0.347757,-0.109338
2024-01-01 00:00:06.130,-0.599099,-0.044611,10.382995,-0.3404,-0.206587,-0.135208
2024-01-01 00:00:06.140,-0.424795,-0.006499,10.127171,-0.271193,-0.289882,-0.172407
2024-01-01 00:00:06.150,-0.542998,0.018992,9.920626,-0.229412,-0.27437,-0.130401
2024-01-01 00:00:06.160,-0.544474,-0.043567,9.861394,-0.199205,-0.216081,-0.161594
2024-01-01 00:00:06.170,-0.512248,0.014959,9.817423,-0.307926,-0.268772,-0.122888
2024-01-01 00:00:06.180,-0.52119,0.112248,9.369553,-0.196483,-0.269642,-0.072892
2024-01-01 00:00:06.190,-0.528874,0.120405,9.327565,-0.277879,-0.266412,-0.158056
2024-01-01 00:00:06.200,-0.572561,0.029932,9.022635,-0.224167,-0.287735,-0.121326
2024-01-01 00:00:06.210,-0.500599,0.138711,9.103857,-0.263755,-0.246396,-0.165318
2024-01-01 00:00:06.220,-0.419402,0.044372,9.003136,-0.224302,-0.258788,-0.143414
2024-01-01 00:00:06.230,-0.433796,0.167283,8.867732,-0.183164,-0.200214,-0.135768
2024-01-01 00:00:06.240,-0.407246,0.280909,8.728379,-0.282671,-0.287032,-0.138603
2024-01-01 00:00:06.250,-0.49663,0.159071,8.540814,-0.248118,-0.118692,-0.054583
2024-01-01 00:00:06.260,-0.503091,0.184484,8.673894,-0.196939,-0.114212,-0.13291
2024-01-01 00:00:06.270,-0.440882,0.283358,8.715719,-0.077463,-0.091429,-0.10092
2024-01-01 00:00:06.280,-0.411291,0.186128,8.523928,-0.231377,-0.029099,-0.170833
2024-01-01 00:00:06.290,-0.337429,0.248837,8.595379,-0.076238,-0.076681,-0.093987
2024-01-01 00:00:06.300,-0.453472,0.326537,8.440877,-0.067437,0.126613,-0.066334
2024-01-01 00:00:06.310,-0.267813,0.280221,8.626166,-0.161361,0.059749,-0.109725
2024-01-01 00:00:06.320,-0.326447,0.314283,8.598165,-0.159702,0.091441,-0.162183
2024-01-01 00:00:06.330,-0.313051,0.376314,8.624924,-0.167197,0.082951,-0.080716
2024-01-01 00:00:06.340,-0.314468,0.372039,8.696831,-0.123348,0.163101,-0.071447
2024-01-01 00:00:06.350,-0.317854,0.374952,8.812388,-0.177205,0.259707,-0.042399
2024-01-01 00:00:06.360,-0.164392,0.354059,8.973977,-0.097244,0.267992,0.004268
2024-01-01 00:00:06.370,-0.171616,0.397646,8.949834,-0.00483,0.281782,-0.059206
2024-01-01 00:00:06.380,-0.208908,0.379779,9.14485,-0.096195,0.285956,-0.065073
2024-01-01 00:00:06.390,-0.177796,0.414351,9.303826,-0.063419,0.256727,-0.065837
2024-01-01 00:00:06.400,-0.098073,0.370761,9.356661,-0.122004,0.214387,-0.016226
2024-01-01 00:00:06.410,0.034204,0.389265,9.730784,-0.003682,0.285138,0.00095
2024-01-01 00:00:06.420,-0.030019,0.35031,9.664304,0.005479,0.287631,-0.021017
2024-01-01 00:00:06.430,-0.059931,0.398096,9.825626,0.010106,0.35198,0.027513
2024-01-01 00:00:06.440,0.035152,0.357959,9.946563,0.010722,0.311006,0.026899
2024-01-01 00:00:06.450,0.065853,0.340098,10.311397,0.021493,0.368083,0.022976
2024-01-01 00:00:06.460,-0.023579,0.404662,10.349525,0.07567,0.335319,0.003273
2024-01-01 00:00:06.470,0.139944,0.396947,10.361327,0.063404,0.236809,0.024451
2024-01-01 00:00:06.480,0.162014,0.418705,10.647101,0.09464,0.150495,-0.025558
2024-01-01 00:00:06.490,0.238676,0.34995,10.68671,0.103415,0.286843,0.062673
2024-01-01 00:00:06.500,0.325917,0.382576,10.791448,0.162294,0.259854,0.064464
2024-01-01 00:00:06.510,0.318598,0.379133,10.830307,0.153063,0.095256,0.077182
2024-01-01 00:00:06.520,0.276722,0.362042,10.870496,0.141537,0.20846,0.094266
2024-01-01 00:00:06.530,0.261739,0.285561,11.014645,0.220042,0.119706,0.098047
2024-01-01 00:00:06.540,0.471541,0.320228,10.984993,0.176865,0.074854,0.090199
2024-01-01 00:00:06.550,0.370462,0.315806,11.198156,0.232294,0.112858,0.101687
2024-01-01 00:00:06.560,0.39156,0.281773,10.958393,0.208012,0.064211,0.06447
2024-01-01 00:00:06.570,0.411675,0.159937,11.172758,0.095577,-0.005557,0.095092
2024-01-01 00:00:06.580,0.443382,0.254222,11.013836,0.262277,-0.049039,0.119735
2024-01-01 00:00:06.590,0.445364,0.337914,11.002864,0.212478,-0.075456,0.101356
2024-01-01 00:00:06.600,0.441447,0.189593,10.985707,0.211098,-0.158393,0.154022
2024-01-01 00:00:06.610,0.458716,0.150785,10.793497,0.235003,-0.171357,0.112803
2024-01-01 00:00:06.620,0.498678,0.184805,10.823699,0.210167,-0.241609,0.142939
2024-01-01 00:00:06.630,0.485679,0.160134,10.435606,0.244465,-0.238335,0.143365
2024-01-01 00:00:06.640,0.487977,0.182031,10.480677,0.208415,-0.262155,0.165194
2024-01-01 00:00:06.650,0.537909,0.03696,10.3404,0.305799,-0.294375,0.172275
2024-01-01 00:00:06.660,0.526973,0.113537,10.181782,0.239649,-0.270947,0.168018
2024-01-01 00:00:06.670,0.620199,0.08334,10.126111,0.228598,-0.305337,0.085456
2024-01-01 00:00:06.680,0.415852,0.023376,10.030827,0.203027,-0.271404,0.185388
2024-01-01 00:00:06.690,0.60449,0.023978,9.910227,0.2634,-0.38093,0.195796
2024-01-01 00:00:06.700,0.611841,0.035052,9.726726,0.259145,-0.304657,0.13541
2024-01-01 00:00:06.710,0.443597,0.003787,9.509052,0.268179,-0.287474,0.156354
2024-01-01 00:00:06.720,0.525979,-0.12025,9.450088,0.195507,-0.300601,0.121397
2024-01-01 00:00:06.730,0.518519,-0.045145,9.294125,0.164073,-0.280786,0.088028
2024-01-01 00:00:06.740,0.458845,-0.112144,9.229915,0.271834,-0.334782,0.122171
2024-01-01 00:00:06.750,0.480638,-0.127648,9.097041,0.310382,-0.217535,0.125485
2024-01-01 00:00:06.760,0.45252,-0.149563,8.927842,0.179614,-0.179581,0.127913
2024-01-01 00:00:06.770,0.582434,-0.182138,8.756308,0.30439,-0.16097,0.106184
2024-01-01 00:00:06.780,0.526673,-0.135842,8.692042,0.232327,-0.104844,0.108876
2024-01-01 00:00:06.790,0.526884,-0.219743,8.631144,0.210241,-0.115681,0.126026
2024-01-01 00:00:06.800,0.481212,-0.290922,8.596363,0.182454,-0.06907,0.098292
2024-01-01 00:00:06.810,0.368967,-0.2732,8.605832,0.124146,-0.051167,0.132329
2024-01-01 00:00:06.820,0.37802,-0.262295,8.621263,0.233135,0.010249,0.130699
2024-01-01 00:00:06.830,0.40615,-0.226543,8.556758,0.134711,-0.067814,0.175506
2024-01-01 00:00:06.840,0.296696,-0.27363,8.576117,0.123647,0.001391,0.131353
2024-01-01 00:00:06.850,0.368343,-0.361048,8.61726,0.20082,0.159805,0.098028
2024-01-01 00:00:06.860,0.294422,-0.207902,8.612055,0.045141,-0.009279,0.064966
2024-01-01 00:00:06.870,0.260388,-0.33142,8.642737,0.050697,0.138453,0.084939
2024-01-01 00:00:06.880,0.286407,-0.2922,8.654811,0.11312,0.233793,0.078214
2024-01-01 00:00:06.890,0.243939,-0.373641,8.832069,0.115449,0.197825,0.045071
2024-01-01 00:00:06.900,0.173782,-0.348214,9.030653,0.111432,0.20676,0.075829
2024-01-01 00:00:06.910,0.21924,-0.340444,9.052929,0.058216,0.254883,0.002041
2024-01-01 00:00:06.920,0.076109,-0.327727,9.216138,0.185683,0.24874,0.028167
2024-01-01 00:00:06.930,0.129399,-0.340651,9.406384,0.033425,0.282258,0.043567
2024-01-01 00:00:06.940,0.096359,-0.353438,9.550696,0.01878,0.257006,0.009564
2024-01-01 00:00:06.950,0.019098,-0.414963,9.566789,-0.024133,0.353063,0.003227
2024-01-01 00:00:06.960,0.018634,-0.428584,9.879185,0.007253,0.371152,-0.003499
2024-01-01 00:00:06.970,-0.092483,-0.382777,10.036022,0.017145,0.291554,-0.03323
2024-01-01 00:00:06.980,-0.015879,-0.350787,9.999991,0.031961,0.223031,0.018286
2024-01-01 00:00:06.990,-0.103264,-0.405248,10.165161,-0.1172,0.256275,-0.056183
2024-01-01 00:00:07.000,-0.15177,-0.336166,10.461253,-0.069406,0.259494,-0.024719
2024-01-01 00:00:07.010,-0.104366,-0.310766,10.481468,-0.048945,0.2765,-0.030359
2024-01-01 00:00:07.020,-0.222677,-0.421865,10.433488,-0.055856,0.179898,-0.079584
2024-01-01 00:00:07.030,-0.287881,-0.409253,10.605931,-0.098517,0.167748,-0.057114
2024-01-01 00:00:07.040,-0.324539,-0.36452,10.792303,-0.085019,0.204811,-0.094573
2024-01-01 00:00:07.050,-0.244808,-0.330984,10.799772,-0.165497,0.196827,-0.033298
2024-01-01 00:00:07.060,-0.366583,-0.360265,10.92541,-0.059633,0.087346,-0.11668
2024-01-01 00:00:07.070,-0.241235,-0.252948,11.010948,-0.099902,0.01868,-0.109337
2024-01-01 00:00:07.080,-0.458351,-0.284773,11.158727,-0.228271,0.215288,-0.133342
2024-01-01 00:00:07.090,-0.293493,-0.28837,11.034958,-0.225717,0.055285,-0.143908
2024-01-01 00:00:07.100,-0.390524,-0.345504,11.143277,-0.234653,-0.032413,-0.061648
2024-01-01 00:00:07.110,-0.427289,-0.321924,11.153896,-0.158126,-0.010532,-0.098931
2024-01-01 00:00:07.120,-0.469624,-0.223626,11.11955,-0.265317,-0.094385,-0.11644
2024-01-01 00:00:07.130,-0.440824,-0.325031,10.976361,-0.225997,-0.077771,-0.145365
2024-01-01 00:00:07.140,-0.479479,-0.147743,10.729564,-0.194355,-0.144459,-0.103025
2024-01-01 00:00:07.150,-0.437605,-0.185573,10.841731,-0.227295,-0.177068,-0.159119
2024-01-01 00:00:07.160,-0.500536,0.00581,10.793291,-0.217168,-0.214016,-0.114258
2024-01-01 00:00:07.170,-0.510467,-0.01909,10.595117,-0.288737,-0.304545,-0.167443
2024-01-01 00:00:07.180,-0.546115,-0.121236,10.622465,-0.210227,-0.155918,-0.163317
2024-01-01 00:00:07.190,-0.538917,-0.094773,10.423725,-0.274329,-0.317068,-0.123452
2024-01-01 00:00:07.200,-0.52697,-0.016661,10.264945,-0.262758,-0.351447,-0.122001
2024-01-01 00:00:07.210,-0.632292,0.041963,10.165307,-0.236651,-0.303646,-0.131199
2024-01-01 00:00:07.220,-0.616735,-0.101705,9.960287,-0.24454,-0.346603,-0.181306
2024-01-01 00:00:07.230,-0.512814,-0.085661,9.587714,-0.248791,-0.302535,-0.163396
2024-01-01 00:00:07.240,-0.540192,-0.003995,9.601043,-0.286957,-0.262856,-0.144948
2024-01-01 00:00:07.250,-0.554805,0.079599,9.592908,-0.26298,-0.240686,-0.17428
2024-01-01 00:00:07.260,-0.539677,0.098487,9.29299,-0.245617,-0.238926,-0.106307
2024-01-01 00:00:07.270,-0.516351,0.15006,9.206406,-0.311359,-0.280309,-0.217621
2024-01-01 00:00:07.280,-0.552013,0.059182,9.015439,-0.261775,-0.244267,-0.166551
2024-01-01 00:00:07.290,-0.553429,0.025546,9.126261,-0.214486,-0.204679,-0.155609
2024-01-01 00:00:07.300,-0.492439,0.205953,9.013955,-0.292159,-0.288192,-0.22229
2024-01-01 00:00:07.310,-0.537139,0.14278,8.717413,-0.164089,-0.144249,-0.175038
2024-01-01 00:00:07.320,-0.452116,0.10377,8.72265,-0.151305,-0.215741,-0.110113
2024-01-01 00:00:07.330,-0.540341,0.231747,8.594287,-0.269172,-0.008993,-0.12324
2024-01-01 00:00:07.340,-0.38487,0.283179,8.651756,-0.13045,-0.097842,-0.071804
2024-01-01 00:00:07.350,-0.392312,0.255607,8.613775,-0.196243,-0.052399,-0.067082
2024-01-01 00:00:07.360,-0.381323,0.256105,8.625392,-0.158222,-0.046586,-0.094497
2024-01-01 00:00:07.370,-0.321816,0.287358,8.591651,-0.193447,-0.004433,-0.091771
2024-01-01 00:00:07.380,-0.263227,0.292109,8.821694,-0.111348,0.175564,-0.092522
2024-01-01 00:00:07.390,-0.270139,0.257478,8.543216,-0.12554,0.14282,-0.167159
2024-01-01 00:00:07.400,-0.386155,0.302271,8.543482,-0.174394,0.050967,-0.122049
2024-01-01 00:00:07.410,-0.330331,0.37603,8.719301,-0.179329,0.234497,-0.069621
2024-01-01 00:00:07.420,-0.268917,0.376807,8.710297,-0.18105,0.247616,-0.04634
2024-01-01 00:00:07.430,-0.206878,0.378641,8.814727,-0.085231,0.199976,-0.048087
2024-01-01 00:00:07.440,-0.152089,0.328722,8.964454,-0.052273,0.25251,-0.075312
2024-01-01 00:00:07.450,-0.183436,0.376343,9.091748,-0.034338,0.256305,-0.012009
2024-01-01 00:00:07.460,-0.106482,0.282177,9.218981,-0.058545,0.372022,0.012886
2024-01-01 00:00:07.470,-0.121861,0.404221,9.473714,-0.096074,0.246159,0.005205
2024-01-01 00:00:07.480,-0.082651,0.469646,9.533864,-0.057774,0.301922,0.015486
2024-01-01 00:00:07.490,-0.090212,0.326032,9.70534,0.048582,0.277809,-0.022198
2024-01-01 00:00:07.500,-0.033775,0.370602,9.937825,-0.018601,0.228044,0.035656
2024-01-01 00:00:07.510,-0.022976,0.415138,9.950792,0.027447,0.405635,0.016539
2024-01-01 00:00:07.520,0.027883,0.458736,10.133965,-0.018929,0.22926,0.036259
2024-01-01 00:00:07.530,0.161164,0.369731,10.322673,0.066139,0.287664,0.040549
2024-01-01 00:00:07.540,0.092443,0.352228,10.269722,0.040713,0.174137,0.034514
2024-01-01 00:00:07.550,0.302482,0.281762,10.357431,0.130001,0.222141,0.020799
2024-01-01 00:00:07.560,0.225891,0.377439,10.688934,0.130144,0.240785,0.052415
2024-01-01 00:00:07.570,0.240136,0.465149,10.801919,0.080167,0.15302,0.092574
2024-01-01 00:00:07.580,0.216851,0.366441,11.015907,0.111744,0.195495,0.057602
2024-01-01 00:00:07.590,0.322765,0.339775,10.937314,0.10324,0.122317,0.105278
2024-01-01 00:00:07.600,0.285958,0.344134,11.04881,0.072092,0.161519,0.10795
2024-01-01 00:00:07.610,0.346748,0.313488,11.010021,0.111968,0.137925,0.083936
2024-01-01 00:00:07.620,0.493387,0.258324,11.075145,0.175994,0.005861,0.141314
2024-01-01 00:00:07.630,0.384057,0.324042,11.193381,0.193017,0.003912,0.095386
2024-01-01 00:00:07.640,0.468463,0.277096,10.881521,0.194245,-0.025876,0.157377
2024-01-01 00:00:07.650,0.396565,0.248703,11.058895,0.181151,-0.038722,0.130767
2024-01-01 00:00:07.660,0.449213,0.180216,11.154295,0.251636,-0.102654,0.122514
2024-01-01 00:00:07.670,0.557189,0.274534,10.947513,0.216199,-0.126123,0.101179
2024-01-01 00:00:07.680,0.453375,0.222247,10.983164,0.255491,-0.1782,0.129549
2024-01-01 00:00:07.690,0.589751,0.140368,10.712628,0.138188,-0.18838,0.130013
2024-01-01 00:00:07.700,0.547205,0.19653,10.659141,0.036524,-0.154686,0.101838
2024-01-01 00:00:07.710,0.49462,0.099481,10.551412,0.2518,-0.209701,0.136038
2024-01-01 00:00:07.720,0.563491,0.062752,10.248187,0.170521,-0.226035,0.120942
2024-01-01 00:00:07.730,0.587796,0.041009,10.200538,0.234454,-0.240446,0.164626
2024-01-01 00:00:07.740,0.5757,-0.032689,10.067983,0.232445,-0.295987,0.187718
2024-01-01 00:00:07.750,0.469666,0.05612,10.078483,0.328541,-0.280087,0.112695
2024-01-01 00:00:07.760,0.513501,-0.082449,9.936687,0.269935,-0.353948,0.20133
2024-01-01 00:00:07.770,0.53727,-0.075779,9.746251,0.258132,-0.235787,0.146047
2024-01-01 00:00:07.780,0.543821,-0.141552,9.640904,0.290732,-0.433798,0.120079
2024-01-01 00:00:07.790,0.574588,-0.065362,9.419724,0.265495,-0.290377,0.170975
2024-01-01 00:00:07.800,0.546581,-0.09165,9.392078,0.221523,-0.21641,0.133251
2024-01-01 00:00:07.810,0.46322,-0.123256,9.166765,0.294477,-0.325323,0.14209
2024-01-01 00:00:07.820,0.539464,-0.181468,9.049686,0.181083,-0.217279,0.129814
2024-01-01 00:00:07.830,0.539659,-0.209924,8.913326,0.247585,-0.248181,0.114352
2024-01-01 00:00:07.840,0.524043,-0.149546,8.890886,0.148101,-0.206512,0.157007
2024-01-01 00:00:07.850,0.535309,-0.22115,8.717387,0.228956,-0.112117,0.122667
2024-01-01 00:00:07.860,0.506527,-0.197996,8.758714,0.220936,-0.118661,0.083672
2024-01-01 00:00:07.870,0.46975,-0.277532,8.535079,0.28691,-0.197663,0.138384
2024-01-01 00:00:07.880,0.423706,-0.242869,8.499078,0.115939,-0.110828,0.080345
2024-01-01 00:00:07.890,0.323118,-0.204544,8.620148,0.154577,0.021551,0.076175
2024-01-01 00:00:07.900,0.405202,-0.257258,8.553355,0.215553,0.030397,0.140429
2024-01-01 00:00:07.910,0.37034,-0.323058,8.536599,0.180382,0.130413,0.062279
2024-01-01 00:00:07.920,0.34853,-0.304408,8.673602,0.161266,0.161603,0.021857
2024-01-01 00:00:07.930,0.244956,-0.34304,8.599913,0.092554,0.093757,0.102902
2024-01-01 00:00:07.940,0.22752,-0.343212,8.694551,0.098447,0.267906,0.067677
2024-01-01 00:00:07.950,0.306041,-0.371303,8.899699,0.177426,0.173879,0.062575
2024-01-01 00:00:07.960,0.222345,-0.373435,9.002147,0.099389,0.152057,0.051744
2024-01-01 00:00:07.970,0.228564,-0.363551,9.108867,0.107172,0.193291,0.059993
2024-01-01 00:00:07.980,0.165403,-0.431475,9.075939,0.06878,0.133825,0.022142
2024-01-01 00:00:07.990,0.134408,-0.438937,9.322185,0.001264,0.345308,0.080534
2024-01-01 00:00:08.000,0.14831,-0.462571,9.281096,0.092779,0.359346,-0.016634
2024-01-01 00:00:08.010,0.04372,-0.476805,9.423973,0.056763,0.239638,0.032307
2024-01-01 00:00:08.020,0.042215,-0.459938,9.452315,0.132286,0.28583,0.029466
2024-01-01 00:00:08.030,-0.017946,-0.392009,9.92034,-0.04843,0.304727,-0.02138
2024-01-01 00:00:08.040,-0.048816,-0.444154,9.863874,0.028814,0.250527,-0.038101
2024-01-01 00:00:08.050,-0.074716,-0.371991,10.06766,-0.092512,0.20528,0.014354
2024-01-01 00:00:08.060,-0.080112,-0.392725,10.146064,-0.033596,0.272978,-0.054604
2024-01-01 00:00:08.070,-0.146805,-0.488316,10.409986,-0.007023,0.254003,-0.051709
2024-01-01 00:00:08.080,-0.091305,-0.351232,10.452318,-0.173649,0.233483,-0.015406
2024-01-01 00:00:08.090,-0.229518,-0.336208,10.496731,-0.094241,0.243408,-0.049354
2024-01-01 00:00:08.100,-0.22419,-0.417912,10.744316,-0.125818,0.279921,-0.112509
2024-01-01 00:00:08.110,-0.266152,-0.337414,10.689786,-0.146082,0.166597,-0.014179
2024-01-01 00:00:08.120,-0.200296,-0.390218,10.819315,-0.104669,0.16108,-0.090258
2024-01-01 00:00:08.130,-0.290358,-0.330285,10.784775,-0.080414,0.15761,-0.093952
2024-01-01 00:00:08.140,-0.275101,-0.385014,10.890703,-0.155161,0.116014,-0.081425
2024-01-01 00:00:08.150,-0.426355,-0.396959,11.053765,-0.149761,0.023411,-0.077269
2024-01-01 00:00:08.160,-0.362896,-0.3109,10.900271,-0.165307,0.024032,-0.04378
2024-01-01 00:00:08.170,-0.354644,-0.281398,10.939736,-0.181331,0.011407,-0.158655
2024-01-01 00:00:08.180,-0.416515,-0.277601,11.041664,-0.245662,-0.107351,-0.089938
2024-01-01 00:00:08.190,-0.387411,-0.298536,10.965047,-0.144889,-0.022019,-0.097896
2024-01-01 00:00:08.200,-0.485088,-0.240124,11.118095,-0.193978,-0.046708,-0.129358
2024-01-01 00:00:08.210,-0.405715,-0.186701,11.039841,-0.196702,-0.18589,-0.10625
2024-01-01 00:00:08.220,-0.376557,-0.181758,10.743195,-0.263736,-0.169472,-0.106018
2024-01-01 00:00:08.230,-0.523272,-0.149119,10.762908,-0.252566,-0.173982,-0.179222
2024-01-01 00:00:08.240,-0.539295,-0.169935,10.671495,-0.243816,-0.257482,-0.088513
2024-01-01 00:00:08.250,-0.454462,-0.055559,10.445945,-0.316311,-0.22706,-0.190526
2024-01-01 00:00:08.260,-0.456449,-0.150277,10.246886,-0.327778,-0.260463,-0.180085
2024-01-01 00:00:08.270,-0.568024,-0.044098,10.230676,-0.276347,-0.355812,-0.155639
2024-01-01 00:00:08.280,-0.567479,0.013845,10.077164,-0.222269,-0.269364,-0.091289
2024-01-01 00:00:08.290,-0.563267,0.002179,9.911597,-0.282283,-0.353214,-0.159023
2024-01-01 00:00:08.300,-0.617218,-0.008534,9.835434,-0.300938,-0.25303,-0.150957
2024-01-01 00:00:08.310,-0.594853,-0.00137,9.593717,-0.290244,-0.331208,-0.106743
2024-01-01 00:00:08.320,-0.596164,0.100216,9.417491,-0.270929,-0.299275,-0.157907
2024-01-01 00:00:08.330,-0.579504,0.000463,9.378384,-0.263654,-0.212155,-0.18293
2024-01-01 00:00:08.340,-0.536143,0.046059,9.266598,-0.134637,-0.241646,-0.158265
2024-01-01 00:00:08.350,-0.514154,0.097316,9.015551,-0.186298,-0.30247,-0.102294
2024-01-01 00:00:08.360,-0.437985,0.201301,9.067524,-0.183084,-0.277855,-0.138468
2024-01-01 00:00:08.370,-0.5533,0.180152,8.746467,-0.170381,-0.232564,-0.079366
2024-01-01 00:00:08.380,-0.440305,0.133951,8.749364,-0.272451,-0.15557,-0.111368
2024-01-01 00:00:08.390,-0.484676,0.187401,8.696433,-0.276562,-0.127678,-0.14861
2024-01-01 00:00:08.400,-0.459273,0.192065,8.602668,-0.26298,-0.156038,-0.123049
2024-01-01 00:00:08.410,-0.40431,0.206389,8.56076,-0.132389,-0.138966,-0.145065
2024-01-01 00:00:08.420,-0.473931,0.309088,8.72461,-0.217266,-0.03214,-0.133997
2024-01-01 00:00:08.430,-0.37698,0.208927,8.4928,-0.242613,-0.020291,0.026345
2024-01-01 00:00:08.440,-0.36472,0.374368,8.759297,-0.191115,0.131839,-0.07118
2024-01-01 00:00:08.450,-0.324079,0.350744,8.619235,-0.170431,0.060654,-0.069268
2024-01-01 00:00:08.460,-0.308702,0.378214,8.628754,-0.133471,0.183573,-0.10683
2024-01-01 00:00:08.470,-0.173742,0.313749,8.712963,-0.122228,0.067101,-0.033778
2024-01-01 00:00:08.480,-0.30072,0.341464,8.946344,-0.163606,0.077991,-0.040336
2024-01-01 00:00:08.490,-0.266784,0.288168,8.748212,-0.074915,0.129525,-0.00907
2024-01-01 00:00:08.500,-0.241966,0.343218,8.835326,-0.127782,0.271311,-0.0025
2024-01-01 00:00:08.510,-0.208431,0.402489,8.974004,-0.089931,0.32307,-0.093643
2024-01-01 00:00:08.520,-0.181753,0.449664,9.157066,-0.03379,0.216332,-0.074173
2024-01-01 00:00:08.530,-0.059144,0.335232,9.145551,-0.085998,0.249075,-0.062458
2024-01-01 00:00:08.540,-0.015873,0.376701,9.421757,-0.067967,0.226573,-0.052018
2024-01-01 00:00:08.550,-0.083439,0.390437,9.697176,0.004628,0.203439,-0.00527
2024-01-01 00:00:08.560,-0.064335,0.329869,9.718942,-0.053213,0.334897,-0.0232
2024-01-01 00:00:08.570,0.033117,0.429507,9.829971,-0.0149,0.31097,0.064782
2024-01-01 00:00:08.580,0.014166,0.362645,9.949893,0.046777,0.297063,0.068534
2024-01-01 00:00:08.590,0.10551,0.386607,10.214582,0.136279,0.219176,0.019951
2024-01-01 00:00:08.600,0.115842,0.369947,10.215414,0.078314,0.359839,0.087486
2024-01-01 00:00:08.610,0.061377,0.347894,10.561487,0.085979,0.237515,0.082053
2024-01-01 00:00:08.620,0.245536,0.380493,10.692434,0.102977,0.270592,0.032341
2024-01-01 00:00:08.630,0.288373,0.362238,10.672285,0.036604,0.149057,-0.006119
2024-01-01 00:00:08.640,0.197674,0.345315,10.753226,0.109559,0.187081,0.055728
2024-01-01 00:00:08.650,0.237877,0.317121,10.926016,0.115449,0.183295,0.050824
2024-01-01 00:00:08.660,0.299619,0.357941,11.006348,0.145773,0.154878,0.084011
2024-01-01 00:00:08.670,0.32913,0.411889,10.914235,0.147828,0.11415,0.087879
2024-01-01 00:00:08.680,0.37134,0.322313,10.980465,0.172809,0.097572,0.094185
2024-01-01 00:00:08.690,0.463765,0.350149,10.943998,0.149542,-0.018253,0.11478
2024-01-01 00:00:08.700,0.377999,0.214824,11.092655,0.17877,0.013043,0.069128
2024-01-01 00:00:08.710,0.369191,0.275236,11.106213,0.124566,-0.026281,0.123915
2024-01-01 00:00:08.720,0.360992,0.194572,10.920746,0.17944,-0.055089,0.104073
2024-01-01 00:00:08.730,0.412784,0.156829,10.951418,0.273783,-0.096841,0.128544
2024-01-01 00:00:08.740,0.4655,0.174147,10.822948,0.228284,-0.196524,0.156129
2024-01-01 00:00:08.750,0.573103,0.250425,10.786303,0.21867,-0.22933,0.095097
2024-01-01 00:00:08.760,0.472049,0.217388,10.815351,0.321138,-0.302482,0.12736
2024-01-01 00:00:08.770,0.52196,0.16051,10.612431,0.164127,-0.176584,0.135745
2024-01-01 00:00:08.780,0.521032,0.049686,10.53504,0.181733,-0.198778,0.126896
2024-01-01 00:00:08.790,0.59056,0.094035,10.306613,0.327063,-0.21738,0.171851
2024-01-01 00:00:08.800,0.664947,0.096103,10.320829,0.247116,-0.260046,0.125279
2024-01-01 00:00:08.810,0.517662,0.066686,10.164579,0.235237,-0.39408,0.131758
2024-01-01 00:00:08.820,0.523466,-0.057589,9.96713,0.189103,-0.346846,0.12814
2024-01-01 00:00:08.830,0.601993,-0.033342,9.864688,0.272287,-0.291011,0.182703
2024-01-01 00:00:08.840,0.583835,-0.015496,9.747634,0.277105,-0.292657,0.135156
2024-01-01 00:00:08.850,0.640139,-0.008901,9.52248,0.194277,-0.306354,0.163202
2024-01-01 00:00:08.860,0.573177,-0.168823,9.327084,0.24025,-0.268493,0.20763
2024-01-01 00:00:08.870,0.520322,-0.09022,9.452165,0.2279,-0.274132,0.144561
2024-01-01 00:00:08.880,0.560272,-0.097776,9.1265,0.254044,-0.252674,0.178109
2024-01-01 00:00:08.890,0.576801,-0.084902,9.047568,0.181022,-0.271105,0.192331
2024-01-01 00:00:08.900,0.551222,-0.114755,9.024703,0.294505,-0.1672,0.169961
2024-01-01 00:00:08.910,0.522638,-0.141771,9.1266,0.271825,-0.212014,0.135116
2024-01-01 00:00:08.920,0.535973,-0.231809,8.658441,0.201223,-0.228563,0.150892
2024-01-01 00:00:08.930,0.524807,-0.307465,8.722179,0.201153,-0.169906,0.088563
2024-01-01 00:00:08.940,0.517549,-0.251241,8.573239,0.197016,-0.116299,0.098901
2024-01-01 00:00:08.950,0.461433,-0.200233,8.546622,0.156083,-0.015335,0.098859
2024-01-01 00:00:08.960,0.39972,-0.198506,8.508775,0.163318,-0.032413,0.178512
2024-01-01 00:00:08.970,0.393087,-0.249593,8.470111,0.161828,-0.004455,0.080827
2024-01-01 00:00:08.980,0.422424,-0.279614,8.567822,0.245233,-0.022496,0.07393
2024-01-01 00:00:08.990,0.296352,-0.297024,8.481168,0.200603,0.113747,0.060646
2024-01-01 00:00:09.000,0.329573,-0.357648,8.719529,0.18816,0.075387,0.101651
2024-01-01 00:00:09.010,0.264342,-0.349047,8.708882,0.147591,0.135009,0.081736
2024-01-01 00:00:09.020,0.257339,-0.270613,8.81418,0.060452,0.24412,0.102394
2024-01-01 00:00:09.030,0.290836,-0.411498,8.833155,0.101068,0.22331,0.082023
2024-01-01 00:00:09.040,0.206699,-0.292682,8.944061,0.138135,0.141498,0.012355
2024-01-01 00:00:09.050,0.169018,-0.397287,9.110937,0.012858,0.156409,0.021244
2024-01-01 00:00:09.060,0.067681,-0.321367,9.119233,0.093498,0.260274,0.077962
2024-01-01 00:00:09.070,0.141498,-0.463099,9.316364,0.163488,0.217833,0.022315
2024-01-01 00:00:09.080,0.104613,-0.36723,9.415275,0.085972,0.322048,0.055356
2024-01-01 00:00:09.090,0.148405,-0.435766,9.556323,0.088994,0.298901,0.006485
2024-01-01 00:00:09.100,-0.007381,-0.470721,9.604816,0.014557,0.308142,-0.026846
2024-01-01 00:00:09.110,-0.013296,-0.388684,10.027284,0.037372,0.263496,-0.015713
2024-01-01 00:00:09.120,-0.043963,-0.347415,10.010234,-0.061544,0.380753,-0.044432
2024-01-01 00:00:09.130,-0.009544,-0.437045,10.299737,-0.000396,0.426624,-0.04108
2024-01-01 00:00:09.140,-0.124862,-0.465298,10.428225,-0.02187,0.257463,-0.026726
2024-01-01 00:00:09.150,-0.137413,-0.389146,10.368569,-0.054306,0.272209,-0.025933
2024-01-01 00:00:09.160,-0.151715,-0.381809,10.504005,-0.016977,0.239091,-0.097372
2024-01-01 00:00:09.170,-0.202898,-0.341605,10.904804,-0.123407,0.197678,-0.058402
2024-01-01 00:00:09.180,-0.263939,-0.311856,10.936683,-0.119179,0.142604,-0.083494
2024-01-01 00:00:09.190,-0.26047,-0.351384,10.877163,-0.118033,0.10097,-0.093136
2024-01-01 00:00:09.200,-0.24412,-0.243516,10.968636,-0.186845,0.067314,-0.077238
2024-01-01 00:00:09.210,-0.37573,-0.3118,10.950288,-0.13611,0.111525,-0.104987
2024-01-01 00:00:09.220,-0.343242,-0.325943,11.071675,-0.244988,0.031194,-0.05396
2024-01-01 00:00:09.230,-0.409178,-0.373747,10.999166,-0.11773,-0.10661,-0.066405
2024-01-01 00:00:09.240,-0.337414,-0.28984,10.89626,-0.178198,0.009368,-0.072863
2024-01-01 00:00:09.250,-0.494953,-0.276112,10.938255,-0.216405,-0.04979,-0.129064
2024-01-01 00:00:09.260,-0.466925,-0.192971,11.013825,-0.241255,-0.014887,-0.148597
2024-01-01 00:00:09.270,-0.438794,-0.198727,10.873276,-0.219754,-0.096777,-0.122354
2024-01-01 00:00:09.280,-0.396478,-0.26092,10.894134,-0.181385,-0.220992,-0.133989
2024-01-01 00:00:09.290,-0.493508,-0.172744,10.734312,-0.195441,-0.288145,-0.151961
2024-01-01 00:00:09.300,-0.53176,-0.126562,10.66457,-0.264368,-0.239807,-0.172727
2024-01-01 00:00:09.310,-0.421987,-0.061968,10.68967,-0.276868,-0.259458,-0.141985
2024-01-01 00:00:09.320,-0.598714,-0.071748,10.524313,-0.206388,-0.202275,-0.155662
2024-01-01 00:00:09.330,-0.644711,-0.055436,10.377287,-0.279195,-0.267676,-0.125196
2024-01-01 00:00:09.340,-0.519387,-0.067507,10.314109,-0.24309,-0.224671,-0.127698
2024-01-01 00:00:09.350,-0.571244,-0.027885,10.142006,-0.242058,-0.357851,-0.115924
2024-01-01 00:00:09.360,-0.600077,0.038547,10.07501,-0.233949,-0.24959,-0.18751
2024-01-01 00:00:09.370,-0.514582,-0.067112,9.776171,-0.207086,-0.26395,-0.137968
2024-01-01 00:00:09.380,-0.536901,0.005511,9.632222,-0.312735,-0.398931,-0.171576
2024-01-01 00:00:09.390,-0.574497,0.007732,9.418111,-0.343873,-0.225809,-0.185602
2024-01-01 00:00:09.400,-0.605631,0.088536,9.347446,-0.274561,-0.277173,-0.160571
2024-01-01 00:00:09.410,-0.49145,0.154068,9.3244,-0.153139,-0.248272,-0.113868
2024-01-01 00:00:09.420,-0.49418,0.085368,9.224413,-0.138296,-0.293464,-0.154812
2024-01-01 00:00:09.430,-0.521452,0.017965,9.079919,-0.143211,-0.16536,-0.093898
2024-01-01 00:00:09.440,-0.412188,0.138659,8.753338,-0.238976,-0.264166,-0.12113
2024-01-01 00:00:09.450,-0.544314,0.226186,8.889863,-0.312201,-0.136202,-0.14568
2024-01-01 00:00:09.460,-0.551687,0.228015,8.576316,-0.333248,-0.107265,-0.094856
2024-01-01 00:00:09.470,-0.492971,0.242472,8.730378,-0.239054,-0.165452,-0.11165
2024-01-01 00:00:09.480,-0.442042,0.22623,8.580075,-0.209796,0.015583,-0.147912
2024-01-01 00:00:09.490,-0.407469,0.19462,8.633182,-0.125712,-0.037702,-0.058682
2024-01-01 00:00:09.500,-0.410128,0.301787,8.454824,-0.137549,0.018401,-0.100779
2024-01-01 00:00:09.510,-0.357523,0.25081,8.656727,-0.159141,-0.055468,-0.101743
2024-01-01 00:00:09.520,-0.413471,0.417223,8.464601,-0.203989,0.161669,-0.121364
2024-01-01 00:00:09.530,-0.253267,0.350978,8.563981,-0.195973,0.028681,-0.053374
2024-01-01 00:00:09.540,-0.303003,0.306745,8.58967,-0.123155,0.174044,-0.065999
2024-01-01 00:00:09.550,-0.215443,0.317377,8.596923,-0.088469,0.104262,-0.055116
2024-01-01 00:00:09.560,-0.22565,0.354271,8.82733,-0.090763,0.152134,-0.08144
2024-01-01 00:00:09.570,-0.190592,0.35668,9.060377,-0.148743,0.249087,-0.033185
2024-01-01 00:00:09.580,-0.154849,0.432964,9.237662,-0.050802,0.284708,-0.022647
2024-01-01 00:00:09.590,-0.13023,0.393613,9.151309,-0.048075,0.190238,-0.061686
2024-01-01 00:00:09.600,-0.089231,0.353558,9.361265,-0.1087,0.325307,-0.07561
2024-01-01 00:00:09.610,-0.023244,0.489166,9.426292,-0.07999,0.336289,-0.007023
2024-01-01 00:00:09.620,-0.047901,0.400256,9.588962,0.008185,0.246492,-0.062944
2024-01-01 00:00:09.630,0.009896,0.43801,9.666596,-0.023341,0.378637,-0.002409
2024-01-01 00:00:09.640,0.002219,0.369559,9.856087,0.082506,0.227068,-0.011588
2024-01-01 00:00:09.650,0.11095,0.417152,10.029572,0.042758,0.265753,0.047181
2024-01-01 00:00:09.660,0.037228,0.412204,10.083962,0.007963,0.313938,0.007591
2024-01-01 00:00:09.670,0.192954,0.298454,10.263299,0.046266,0.236317,0.061284
2024-01-01 00:00:09.680,0.132404,0.488635,10.397764,0.064266,0.277356,0.021232
2024-01-01 00:00:09.690,0.093916,0.446004,10.593341,0.038787,0.257756,0.075124
2024-01-01 00:00:09.700,0.202333,0.353899,10.556873,0.043429,0.214506,0.115245
2024-01-01 00:00:09.710,0.191674,0.309647,10.741512,0.137672,0.240558,0.02952
2024-01-01 00:00:09.720,0.29678,0.371884,10.989208,0.158058,0.159861,0.078238
2024-01-01 00:00:09.730,0.250262,0.347367,11.005868,0.158777,0.152843,0.159616
2024-01-01 00:00:09.740,0.287756,0.34816,11.082006,0.216705,0.166632,0.086561
2024-01-01 00:00:09.750,0.241692,0.326164,11.021344,0.125716,0.115383,0.093536
2024-01-01 00:00:09.760,0.338502,0.327016,11.073752,0.247858,0.080645,0.122141
2024-01-01 00:00:09.770,0.263628,0.358149,11.139906,0.129873,-0.051187,0.106184
2024-01-01 00:00:09.780,0.328007,0.297286,11.179012,0.134458,-0.002647,0.059838
2024-01-01 00:00:09.790,0.466202,0.19857,10.875416,0.10663,-0.107573,0.150745
2024-01-01 00:00:09.800,0.486976,0.300488,10.886859,0.181204,-0.161604,0.062008
2024-01-01 00:00:09.810,0.486924,0.294898,11.041142,0.186473,-0.133663,0.114492
2024-01-01 00:00:09.820,0.433664,0.350246,10.843034,0.245394,-0.206048,0.167681
2024-01-01 00:00:09.830,0.494331,0.11558,10.725733,0.237975,-0.149845,0.124772
2024-01-01 00:00:09.840,0.50953,0.16242,10.580089,0.172038,-0.174588,0.118201
2024-01-01 00:00:09.850,0.463031,0.024175,10.525,0.217159,-0.333422,0.168455
2024-01-01 00:00:09.860,0.605566,0.1335,10.335746,0.222516,-0.299405,0.11912
2024-01-01 00:00:09.870,0.581886,0.05563,10.484983,0.155754,-0.34713,0.110065
2024-01-01 00:00:09.880,0.532739,0.156125,10.178677,0.198129,-0.309653,0.156541
2024-01-01 00:00:09.890,0.54903,-0.002072,10.033517,0.210407,-0.272202,0.143881
2024-01-01 00:00:09.900,0.560118,-0.071221,9.939742,0.321544,-0.311457,0.112608
2024-01-01 00:00:09.910,0.447733,-0.03379,9.823089,0.259491,-0.329096,0.16906
2024-01-01 00:00:09.920,0.535691,-0.132432,9.676057,0.282222,-0.230743,0.163403
2024-01-01 00:00:09.930,0.510293,-0.019417,9.543443,0.172519,-0.403071,0.137678
2024-01-01 00:00:09.940,0.488781,-0.183345,9.269101,0.304648,-0.214102,0.138222
2024-01-01 00:00:09.950,0.517422,-0.101511,9.1645,0.306636,-0.287482,0.15906
2024-01-01 00:00:09.960,0.612148,-0.229313,9.127163,0.137475,-0.244915,0.178146
2024-01-01 00:00:09.970,0.543294,-0.163495,8.910999,0.197121,-0.244805,0.130949
2024-01-01 00:00:09.980,0.469922,-0.08686,8.852116,0.251371,-0.115715,0.15559
2024-01-01 00:00:09.990,0.512624,-0.171965,8.79693,0.252217,-0.226178,0.148954
2024-01-01 00:00:10.000,0.53781,-0.253486,8.75472,0.178731,-0.133548,0.153973
2024-01-01 00:00:10.010,0.496312,-0.231461,8.491946,0.189307,-0.075424,0.123928
2024-01-01 00:00:10.020,0.43375,-0.247799,8.649769,0.165935,-0.148607,0.090113
2024-01-01 00:00:10.030,0.377628,-0.243011,8.549064,0.191873,-0.079376,0.097936
2024-01-01 00:00:10.040,0.422682,-0.352011,8.616618,0.236118,-0.005655,0.116041
2024-01-01 00:00:10.050,0.383905,-0.270089,8.631628,0.127008,-0.007469,0.15389
2024-01-01 00:00:10.060,0.384198,-0.449954,8.724621,0.204331,0.030688,0.078054
2024-01-01 00:00:10.070,0.345236,-0.360163,8.747476,0.103406,0.087595,0.109638
2024-01-01 00:00:10.080,0.338915,-0.365886,8.806241,0.087818,0.169742,0.068278
2024-01-01 00:00:10.090,0.23165,-0.321434,8.888613,0.15839,0.150414,0.07379
2024-01-01 00:00:10.100,0.295367,-0.362382,8.885295,0.150414,0.249454,0.108052
2024-01-01 00:00:10.110,0.209673,-0.442953,8.966464,0.133385,0.170938,0.077418
2024-01-01 00:00:10.120,0.273163,-0.429804,9.147257,0.01121,0.180485,0.008961
2024-01-01 00:00:10.130,0.103966,-0.37719,9.259616,0.039623,0.358311,0.020578
2024-01-01 00:00:10.140,0.193772,-0.396315,9.308318,0.089774,0.244405,0.066861
2024-01-01 00:00:10.150,0.085049,-0.425204,9.503983,0.036238,0.223252,0.024753
2024-01-01 00:00:10.160,0.010504,-0.422813,9.611998,-0.034105,0.209217,-0.022717
2024-01-01 00:00:10.170,-0.013346,-0.365114,9.692385,0.027847,0.353522,-0.02161
2024-01-01 00:00:10.180,-0.037433,-0.425581,10.010508,-0.045475,0.282025,0.015264
2024-01-01 00:00:10.190,-0.032398,-0.4025,10.056921,0.06536,0.281615,0.015212
2024-01-01 00:00:10.200,-0.05947,-0.286628,10.358299,0.038327,0.277502,-0.022813
2024-01-01 00:00:10.210,-0.146008,-0.461977,10.200974,-0.023124,0.323345,0.042262
2024-01-01 00:00:10.220,-0.149849,-0.47771,10.415916,0.000491,0.247206,-0.015811
2024-01-01 00:00:10.230,-0.072313,-0.338937,10.583568,-0.078318,0.353347,-0.056239
2024-01-01 00:00:10.240,-0.123228,-0.403746,10.781841,-0.057003,0.219545,-0.081636
2024-01-01 00:00:10.250,-0.217246,-0.37615,10.820587,-0.034779,0.239732,-0.094445
2024-01-01 00:00:10.260,-0.265797,-0.388481,10.897785,-0.109405,0.198123,-0.062946
2024-01-01 00:00:10.270,-0.289408,-0.350395,10.852464,-0.147037,0.125086,-0.09523
2024-01-01 00:00:10.280,-0.29143,-0.244299,10.904209,-0.231643,0.064862,-0.037635
2024-01-01 00:00:10.290,-0.398834,-0.269825,11.060361,-0.162199,0.076814,-0.050836
2024-01-01 00:00:10.300,-0.384954,-0.251459,10.946385,-0.127958,0.050898,-0.082486
2024-01-01 00:00:10.310,-0.478625,-0.349006,11.016786,-0.132353,-0.038407,-0.143151
2024-01-01 00:00:10.320,-0.396985,-0.31842,11.086047,-0.164303,-0.036498,-0.133879
2024-01-01 00:00:10.330,-0.404902,-0.384586,10.937026,-0.225821,-0.017426,-0.081583
2024-01-01 00:00:10.340,-0.480232,-0.264036,11.097096,-0.306147,-0.00907,-0.141276
2024-01-01 00:00:10.350,-0.394615,-0.155897,11.003702,-0.239904,-0.101631,-0.095421
2024-01-01 00:00:10.360,-0.550215,-0.157349,10.70212,-0.237457,-0.081009,-0.119105
2024-01-01 00:00:10.370,-0.576075,-0.173105,10.661292,-0.244217,-0.233018,-0.135591
2024-01-01 00:00:10.380,-0.503833,-0.141421,10.448332,-0.203188,-0.191085,-0.161555
2024-01-01 00:00:10.390,-0.473127,-0.152543,10.452605,-0.139571,-0.180772,-0.14614
2024-01-01 00:00:10.400,-0.449903,-0.085247,10.450841,-0.236596,-0.310626,-0.139974
2024-01-01 00:00:10.410,-0.563824,-0.034249,10.222765,-0.256691,-0.304545,-0.116536
2024-01-01 00:00:10.420,-0.491864,-0.130146,10.152955,-0.261051,-0.203971,-0.175426
2024-01-01 00:00:10.430,-0.550763,-0.011008,9.850309,-0.243252,-0.346222,-0.157568
2024-01-01 00:00:10.440,-0.55862,0.044083,9.889708,-0.29141,-0.367032,-0.148652
2024-01-01 00:00:10.450,-0.505064,0.000165,9.635018,-0.243648,-0.22196,-0.129914
2024-01-01 00:00:10.460,-0.513999,0.079343,9.535752,-0.225921,-0.2328,-0.176331
2024-01-01 00:00:10.470,-0.620922,0.208276,9.386486,-0.235926,-0.261286,-0.187343
2024-01-01 00:00:10.480,-0.461896,0.085329,9.157053,-0.220634,-0.271541,-0.125887
2024-01-01 00:00:10.490,-0.458496,0.132902,9.038973,-0.218086,-0.273841,-0.189402
2024-01-01 00:00:10.500,-0.548741,0.098636,9.090422,-0.323805,-0.217012,-0.102577
2024-01-01 00:00:10.510,-0.485854,0.166436,8.937658,-0.197995,-0.128136,-0.142581
2024-01-01 00:00:10.520,-0.467384,0.20168,8.894921,-0.257226,-0.168365,-0.180631
2024-01-01 00:00:10.530,-0.463799,0.209087,8.75581,-0.271534,-0.042633,-0.144458
2024-01-01 00:00:10.540,-0.487454,0.168353,8.675054,-0.264286,-0.164488,-0.114064
2024-01-01 00:00:10.550,-0.475044,0.248893,8.475078,-0.178988,-0.087541,-0.13638
2024-01-01 00:00:10.560,-0.422744,0.330101,8.557536,-0.202705,-0.070985,-0.114345
2024-01-01 00:00:10.570,-0.341384,0.296955,8.559911,-0.265926,-0.071645,-0.086894
2024-01-01 00:00:10.580,-0.350018,0.33921,8.71845,-0.147552,0.010142,-0.108938
2024-01-01 00:00:10.590,-0.371607,0.294846,8.63442,-0.23247,0.073601,-0.124405
2024-01-01 00:00:10.600,-0.289155,0.358721,8.736536,-0.141982,0.11316,-0.098353
2024-01-01 00:00:10.610,-0.443703,0.348614,8.712097,-0.125019,0.228488,-0.039721
2024-01-01 00:00:10.620,-0.216337,0.299377,8.673791,-0.080164,0.174557,-0.024114
2024-01-01 00:00:10.630,-0.332317,0.373928,8.821311,-0.02243,0.238126,-0.127506
2024-01-01 00:00:10.640,-0.234166,0.318263,8.925813,-0.166436,0.210726,-0.02619
2024-01-01 00:00:10.650,-0.241997,0.344785,8.939178,-0.087175,0.315273,-0.043226
2024-01-01 00:00:10.660,-0.220076,0.39318,9.101899,-0.084427,0.372059,-0.014646
2024-01-01 00:00:10.670,-0.066095,0.404541,9.243844,-0.034738,0.295989,-0.05037
2024-01-01 00:00:10.680,-0.115888,0.33484,9.523971,-0.031263,0.233395,-0.078276
2024-01-01 00:00:10.690,-0.043226,0.450268,9.36998,-0.045151,0.265287,0.001021
2024-01-01 00:00:10.700,-0.030738,0.428067,9.777585,-0.03495,0.312498,-0.035972
2024-01-01 00:00:10.710,0.027718,0.364754,9.752628,-0.054065,0.322795,-0.040594
2024-01-01 00:00:10.720,0.039951,0.322258,9.864017,0.065807,0.332335,-0.029704
2024-01-01 00:00:10.730,0.004081,0.389665,10.212137,0.053974,0.313776,0.036636
2024-01-01 00:00:10.740,0.149929,0.37102,10.316019,0.091395,0.280469,0.031488
2024-01-01 00:00:10.750,0.106968,0.394028,10.491399,0.044324,0.23381,0.05938
2024-01-01 00:00:10.760,0.084914,0.363932,10.580673,0.041132,0.267524,0.064457
2024-01-01 00:00:10.770,0.171865,0.274117,10.797265,0.033935,0.31866,0.040082
2024-01-01 00:00:10.780,0.298171,0.346186,10.781722,0.11937,0.252243,0.05874
2024-01-01 00:00:10.790,0.294738,0.340177,10.816303,0.062659,0.200549,0.053446
2024-01-01 00:00:10.800,0.263021,0.375773,10.934039,0.219912,0.19547,0.070178
2024-01-01 00:00:10.810,0.290252,0.296627,11.068783,0.074488,0.093635,0.054905
2024-01-01 00:00:10.820,0.317835,0.401777,10.953711,0.165463,0.053429,0.102783
2024-01-01 00:00:10.830,0.462807,0.207474,10.994076,0.241511,0.007022,0.130154
2024-01-01 00:00:10.840,0.401884,0.352784,11.034673,0.203949,0.003105,0.079898
2024-01-01 00:00:10.850,0.426789,0.259191,10.887002,0.193005,-0.046901,0.148971
2024-01-01 00:00:10.860,0.477907,0.295637,11.045264,0.145391,-0.000202,0.119695
2024-01-01 00:00:10.870,0.45797,0.238028,10.845339,0.133653,-0.118364,0.128877
2024-01-01 00:00:10.880,0.451181,0.271591,10.946169,0.249472,-0.167415,0.075599
2024-01-01 00:00:10.890,0.470821,0.175082,10.941274,0.293779,-0.06108,0.076865
2024-01-01 00:00:10.900,0.49191,0.118687,10.749419,0.20328,-0.209531,0.139457
2024-01-01 00:00:10.910,0.506775,0.223214,10.823811,0.174245,-0.205469,0.162411
2024-01-01 00:00:10.920,0.556413,0.124561,10.462776,0.11347,-0.21383,0.121685
2024-01-01 00:00:10.930,0.532235,0.118911,10.554305,0.191706,-0.31323,0.194549
2024-01-01 00:00:10.940,0.574053,0.146798,10.383477,0.238599,-0.211094,0.168617
2024-01-01 00:00:10.950,0.539318,0.010397,10.0555,0.326935,-0.253732,0.120937
2024-01-01 00:00:10.960,0.55135,0.06849,10.267698,0.282483,-0.21646,0.150221
2024-01-01 00:00:10.970,0.449687,-0.014192,9.900474,0.265071,-0.333083,0.224198
2024-01-01 00:00:10.980,0.595702,-0.01477,9.6888,0.229942,-0.294794,0.112692
2024-01-01 00:00:10.990,0.565606,-0.027985,9.500558,0.22006,-0.294288,0.165379
2024-01-01 00:00:11.000,0.59469,-0.129938,9.452358,0.317914,-0.275492,0.138897
2024-01-01 00:00:11.010,0.394611,-0.117008,9.321278,0.25523,-0.349877,0.168322
2024-01-01 00:00:11.020,0.63662,-0.033383,9.207775,0.13678,-0.256253,0.183164
2024-01-01 00:00:11.030,0.516167,-0.07915,9.052229,0.204117,-0.314165,0.131089
2024-01-01 00:00:11.040,0.567701,-0.148689,9.013295,0.189949,-0.202632,0.173283
2024-01-01 00:00:11.050,0.447679,-0.154998,8.829865,0.199812,-0.301655,0.202911
2024-01-01 00:00:11.060,0.515976,-0.202889,8.617372,0.248753,-0.25979,0.134353
2024-01-01 00:00:11.070,0.416659,-0.140722,8.685789,0.207959,-0.095972,0.151546
2024-01-01 00:00:11.080,0.420518,-0.238225,8.449206,0.201478,-0.132047,0.105479
2024-01-01 00:00:11.090,0.528231,-0.235487,8.623885,0.262278,-0.120464,0.11854
2024-01-01 00:00:11.100,0.402329,-0.207798,8.490921,0.152387,0.027084,0.107026
2024-01-01 00:00:11.110,0.400651,-0.321077,8.573081,0.270383,0.015036,0.130212
2024-01-01 00:00:11.120,0.409858,-0.220406,8.673079,0.132959,0.077391,0.136055
2024-01-01 00:00:11.130,0.366453,-0.389979,8.517077,0.159764,0.060142,0.089893
2024-01-01 00:00:11.140,0.323328,-0.246005,8.71964,0.129489,0.236161,0.132138
2024-01-01 00:00:11.150,0.307107,-0.359026,8.657997,0.13747,0.104275,0.124681
2024-01-01 00:00:11.160,0.381087,-0.36426,8.906219,0.140828,0.252196,0.096565
2024-01-01 00:00:11.170,0.229195,-0.457147,8.824408,0.127181,0.190104,0.047813
2024-01-01 00:00:11.180,0.212491,-0.39466,8.887191,0.054361,0.135991,0.036855
2024-01-01 00:00:11.190,0.224633,-0.431903,9.121988,0.022082,0.265395,0.022565
2024-01-01 00:00:11.200,0.196448,-0.416981,9.154944,0.189328,0.276208,0.066976
2024-01-01 00:00:11.210,0.16911,-0.39882,9.253819,0.025691,0.223539,-0.006419
2024-01-01 00:00:11.220,0.109903,-0.348071,9.42096,0.0704,0.241832,0.041569
2024-01-01 00:00:11.230,-0.011244,-0.388224,9.598496,-0.059516,0.294585,-0.019913
2024-01-01 00:00:11.240,0.09536,-0.384492,9.855176,-0.007759,0.317116,0.028439
2024-01-01 00:00:11.250,-0.075895,-0.454548,9.739667,-0.014804,0.175782,-0.00455
2024-01-01 00:00:11.260,-0.035647,-0.442329,10.041673,0.00056,0.347542,0.02616
2024-01-01 00:00:11.270,-0.120519,-0.305504,10.232089,-0.173761,0.261675,0.01166
2024-01-01 00:00:11.280,-0.117754,-0.427989,10.334726,-0.04376,0.207388,0.011812
2024-01-01 00:00:11.290,-0.129456,-0.30286,10.554188,-0.123803,0.304835,0.004035
2024-01-01 00:00:11.300,-0.160672,-0.390938,10.564805,-0.064119,0.236862,-0.043893
2024-01-01 00:00:11.310,-0.18588,-0.370481,10.666879,-0.145897,0.275838,-0.091212
2024-01-01 00:00:11.320,-0.155816,-0.307613,10.827931,-0.150275,0.210957,-0.096076
2024-01-01 00:00:11.330,-0.242535,-0.286829,10.874042,-0.134232,0.160412,-0.134936
2024-01-01 00:00:11.340,-0.305218,-0.344051,10.905891,-0.185803,0.122073,-0.112422
2024-01-01 00:00:11.350,-0.271595,-0.344844,11.033939,-0.16914,0.121283,-0.085153
2024-01-01 00:00:11.360,-0.286015,-0.314029,10.979702,-0.216709,0.042572,-0.111014
2024-01-01 00:00:11.370,-0.431369,-0.279066,11.005461,-0.259835,-0.014149,-0.10631
2024-01-01 00:00:11.380,-0.363345,-0.23511,11.01745,-0.127836,0.023815,-0.092459
2024-01-01 00:00:11.390,-0.38003,-0.262214,11.156082,-0.253479,-0.048974,-0.122328
2024-01-01 00:00:11.400,-0.450412,-0.213327,10.761276,-0.206904,-0.074565,-0.152437
2024-01-01 00:00:11.410,-0.385694,-0.143359,11.005098,-0.168937,-0.05522,-0.125546
2024-01-01 00:00:11.420,-0.479364,-0.186441,10.914682,-0.24523,-0.14732,-0.155644
2024-01-01 00:00:11.430,-0.48134,-0.169447,10.700805,-0.262903,-0.170863,-0.141111
2024-01-01 00:00:11.440,-0.510352,-0.239862,10.769284,-0.216733,-0.229226,-0.096544
2024-01-01 00:00:11.450,-0.513273,-0.273775,10.678944,-0.177763,-0.202594,-0.148311
2024-01-01 00:00:11.460,-0.57945,-0.100652,10.573005,-0.296937,-0.228445,-0.089954
2024-01-01 00:00:11.470,-0.605417,-0.102231,10.188792,-0.249968,-0.21932,-0.102528
2024-01-01 00:00:11.480,-0.460632,-0.100313,10.377226,-0.332242,-0.308102,-0.164749
2024-01-01 00:00:11.490,-0.587788,-0.039224,10.069574,-0.267587,-0.312983,-0.18209
2024-01-01 00:00:11.500,-0.598216,-0.031071,10.039814,-0.247674,-0.257442,-0.151207
2024-01-01 00:00:11.510,-0.657633,0.051784,9.898065,-0.292715,-0.28731,-0.11539
2024-01-01 00:00:11.520,-0.581337,0.023163,9.622138,-0.272572,-0.343977,-0.164539
2024-01-01 00:00:11.530,-0.613077,0.004908,9.600224,-0.319013,-0.227977,-0.121918
2024-01-01 00:00:11.540,-0.460474,0.115015,9.375274,-0.242771,-0.368831,-0.111722
2024-01-01 00:00:11.550,-0.485868,0.077676,9.104684,-0.191015,-0.231393,-0.169501
2024-01-01 00:00:11.560,-0.562705,0.137581,9.235516,-0.294993,-0.316845,-0.164363
2024-01-01 00:00:11.570,-0.405797,0.109723,8.960983,-0.266778,-0.138784,-0.120007
2024-01-01 00:00:11.580,-0.457667,0.122981,8.846342,-0.205216,-0.286586,-0.13365
2024-01-01 00:00:11.590,-0.509589,0.181025,8.786484,-0.163644,-0.125148,-0.155131
2024-01-01 00:00:11.600,-0.603212,0.198193,8.758171,-0.292042,-0.157732,-0.140995
2024-01-01 00:00:11.610,-0.346943,0.241599,8.664241,-0.218208,-0.140757,-0.127977
2024-01-01 00:00:11.620,-0.512629,0.223482,8.660793,-0.187276,-0.080249,-0.167805
2024-01-01 00:00:11.630,-0.505556,0.163587,8.474324,-0.197506,-0.023786,-0.092472
2024-01-01 00:00:11.640,-0.350836,0.251379,8.503525,-0.306551,-0.0657,-0.123987
2024-01-01 00:00:11.650,-0.257272,0.329381,8.552222,-0.147336,-0.026088,-0.186946
2024-01-01 00:00:11.660,-0.286036,0.290497,8.729091,-0.08551,0.082162,-0.097602
2024-01-01 00:00:11.670,-0.301821,0.307672,8.600868,-0.144175,-0.001389,-0.112252
2024-01-01 00:00:11.680,-0.273911,0.382833,8.74601,-0.189577,0.087908,-0.032149
2024-01-01 00:00:11.690,-0.233564,0.310291,8.727324,-0.151218,0.300684,-0.0929
2024-01-01 00:00:11.700,-0.209924,0.279935,8.765529,-0.024173,0.129735,-0.10053
2024-01-01 00:00:11.710,-0.204594,0.359,8.878299,-0.05389,0.262562,-0.044395
2024-01-01 00:00:11.720,-0.183474,0.351517,8.990922,-0.053764,0.200088,-0.071273
2024-01-01 00:00:11.730,-0.161194,0.334813,9.170126,-0.054027,0.275896,-0.066492
2024-01-01 00:00:11.740,-0.1646,0.380438,9.358708,-0.090739,0.300776,-0.019324
2024-01-01 00:00:11.750,-0.109335,0.418525,9.412138,-0.053347,0.338433,-0.057205
2024-01-01 00:00:11.760,-0.148022,0.396871,9.618822,-0.032702,0.282021,-0.061002
2024-01-01 00:00:11.770,-0.036145,0.414704,9.591101,0.013284,0.39751,0.043263
2024-01-01 00:00:11.780,-0.048404,0.49067,9.781491,0.075912,0.270531,0.017665
2024-01-01 00:00:11.790,-0.021904,0.382123,9.903031,0.071042,0.309515,0.001149
2024-01-01 00:00:11.800,0.074405,0.411079,10.130367,-0.041237,0.303777,0.017735
2024-01-01 00:00:11.810,0.166921,0.368227,10.216671,0.055437,0.225115,0.041718
2024-01-01 00:00:11.820,0.174812,0.346542,10.437957,0.095427,0.252752,0.064354
2024-01-01 00:00:11.830,0.081503,0.353449,10.431449,0.103683,0.257281,0.020965
2024-01-01 00:00:11.840,0.141128,0.351273,10.626153,0.055179,0.206331,0.062969
2024-01-01 00:00:11.850,0.267572,0.38441,10.783263,0.245948,0.32558,0.044944
2024-01-01 00:00:11.860,0.200576,0.473854,10.656062,0.049646,0.134399,0.062431
2024-01-01 00:00:11.870,0.266775,0.309336,11.07008,0.072207,0.205673,0.080641
2024-01-01 00:00:11.880,0.332859,0.311857,10.941763,0.150478,0.157879,0.083079
2024-01-01 00:00:11.890,0.283238,0.315937,10.8506,0.256593,0.081134,0.112518
2024-01-01 00:00:11.900,0.362082,0.32419,11.056897,0.120378,0.004213,0.111925
2024-01-01 00:00:11.910,0.314041,0.301837,11.061596,0.159773,-0.025946,0.058594
2024-01-01 00:00:11.920,0.373293,0.33613,11.049861,0.237211,-0.04861,0.069273
2024-01-01 00:00:11.930,0.440582,0.132936,11.116057,0.192104,-0.146865,0.104707
2024-01-01 00:00:11.940,0.364713,0.116364,11.060032,0.185253,-0.141826,0.176049
2024-01-01 00:00:11.950,0.484627,0.19156,10.971172,0.238556,-0.19859,0.100617
2024-01-01 00:00:11.960,0.47827,0.251118,10.914815,0.231467,-0.088274,0.124458
2024-01-01 00:00:11.970,0.521875,0.097195,10.787214,0.276181,-0.153606,0.118705
2024-01-01 00:00:11.980,0.518744,0.003715,10.840807,0.295277,-0.171655,0.121801
2024-01-01 00:00:11.990,0.587307,0.160745,10.471413,0.251305,-0.205034,0.14692
2024-01-01 00:00:12.000,0.535126,0.122004,10.481176,0.25498,-0.246424,0.186259
2024-01-01 00:00:12.010,0.515339,0.032567,10.346383,0.25471,-0.198532,0.160082
2024-01-01 00:00:12.020,0.549022,0.014757,10.270115,0.271232,-0.315162,0.12396
2024-01-01 00:00:12.030,0.5743,-0.007716,9.995982,0.251457,-0.288433,0.231816
2024-01-01 00:00:12.040,0.551924,0.022894,9.778948,0.249734,-0.261516,0.152216
2024-01-01 00:00:12.050,0.551966,-0.037412,9.784447,0.309802,-0.365921,0.132666
2024-01-01 00:00:12.060,0.513399,-0.004836,9.648384,0.325123,-0.141898,0.191953
2024-01-01 00:00:12.070,0.512028,-0.195611,9.601569,0.172428,-0.288086,0.134611
2024-01-01 00:00:12.080,0.469841,-0.118881,9.241794,0.245942,-0.271218,0.197152
2024-01-01 00:00:12.090,0.62039,-0.155239,9.303238,0.207797,-0.20045,0.11922
2024-01-01 00:00:12.100,0.461823,-0.13431,9.275936,0.222641,-0.1989,0.185815
2024-01-01 00:00:12.110,0.478674,-0.170534,8.941952,0.253453,-0.220734,0.146028
2024-01-01 00:00:12.120,0.464934,-0.125384,8.766053,0.261133,-0.191058,0.175328
2024-01-01 00:00:12.130,0.531413,-0.279318,8.746863,0.215606,-0.244982,0.18978
2024-01-01 00:00:12.140,0.456057,-0.204511,8.704809,0.118335,-0.167473,0.094423
2024-01-01 00:00:12.150,0.515708,-0.198591,8.688276,0.157803,-0.081743,0.161906
2024-01-01 00:00:12.160,0.400603,-0.152618,8.551395,0.242224,-0.051883,0.076172
2024-01-01 00:00:12.170,0.42769,-0.287637,8.695316,0.051042,0.021526,0.081423
2024-01-01 00:00:12.180,0.350011,-0.264517,8.470975,0.237452,-0.010469,0.082746
2024-01-01 00:00:12.190,0.475726,-0.387158,8.427429,0.193547,-0.038658,0.1156
2024-01-01 00:00:12.200,0.28451,-0.431766,8.678632,0.222123,0.11827,0.094779
2024-01-01 00:00:12.210,0.33362,-0.284058,8.448435,0.134675,0.171066,0.081748
2024-01-01 00:00:12.220,0.322961,-0.339581,8.670609,0.029326,0.176636,0.083825
2024-01-01 00:00:12.230,0.284103,-0.292215,9.008334,0.141251,0.154192,0.089579
2024-01-01 00:00:12.240,0.225383,-0.43044,8.844394,0.170391,0.24301,0.084042
2024-01-01 00:00:12.250,0.198584,-0.345159,8.855402,0.139452,0.388029,0.088754
2024-01-01 00:00:12.260,0.176986,-0.285821,9.052074,0.046318,0.245155,0.102273
2024-01-01 00:00:12.270,0.136565,-0.365078,9.174566,0.069754,0.193332,0.038609
2024-01-01 00:00:12.280,0.160734,-0.377708,9.32213,0.024513,0.245565,0.01506
2024-01-01 00:00:12.290,0.191303,-0.395235,9.499795,-0.004247,0.318332,0.040436
2024-01-01 00:00:12.300,0.020861,-0.476971,9.506215,0.069922,0.215049,-0.021036
2024-01-01 00:00:12.310,-0.051963,-0.332041,9.869914,-0.052364,0.307928,-0.015854
2024-01-01 00:00:12.320,-0.020152,-0.430379,9.901118,-0.051845,0.318526,0.025689
2024-01-01 00:00:12.330,0.081036,-0.373253,10.085267,-0.076997,0.372196,-0.016801
2024-01-01 00:00:12.340,-0.12018,-0.473898,10.1195,-0.110874,0.352817,-0.058063
2024-01-01 00:00:12.350,-0.029811,-0.450627,10.410343,-0.043483,0.318452,-0.075176
2024-01-01 00:00:12.360,-0.059269,-0.314459,10.417706,-0.006995,0.151219,-0.03758
2024-01-01 00:00:12.370,-0.201727,-0.396809,10.582672,-0.088356,0.285968,-0.013211
2024-01-01 00:00:12.380,-0.175893,-0.298704,10.597694,-0.16817,0.252454,-0.021873
2024-01-01 00:00:12.390,-0.152514,-0.365926,10.692602,-0.064336,0.204252,-0.060474
2024-01-01 00:00:12.400,-0.281676,-0.44351,10.91419,-0.035133,0.076586,-0.011384
2024-01-01 00:00:12.410,-0.300781,-0.295003,10.895993,-0.164404,0.093658,-0.0824
2024-01-01 00:00:12.420,-0.346568,-0.356123,10.920097,-0.168239,0.041732,-0.090744
2024-01-01 00:00:12.430,-0.394012,-0.277592,10.977662,-0.130251,-0.034477,-0.170643
2024-01-01 00:00:12.440,-0.400346,-0.296089,11.108979,-0.086125,0.031417,-0.113752
2024-01-01 00:00:12.450,-0.452421,-0.358305,11.009588,-0.203821,-0.043474,-0.081137
2024-01-01 00:00:12.460,-0.411515,-0.255766,11.040155,-0.25445,0.092587,-0.065777
2024-01-01 00:00:12.470,-0.472292,-0.136093,11.023377,-0.165608,-0.081681,-0.143214
2024-01-01 00:00:12.480,-0.441184,-0.202331,10.824721,-0.165898,-0.042111,-0.109643
2024-01-01 00:00:12.490,-0.54819,-0.210152,10.800287,-0.21351,-0.217342,-0.096883
2024-01-01 00:00:12.500,-0.469755,-0.133092,10.869507,-0.248952,-0.195568,-0.132291
2024-01-01 00:00:12.510,-0.458852,-0.155265,10.694069,-0.177794,-0.192071,-0.205006
2024-01-01 00:00:12.520,-0.612722,-0.13369,10.735024,-0.206796,-0.267467,-0.1325
2024-01-01 00:00:12.530,-0.505074,-0.176621,10.613725,-0.276502,-0.265259,-0.120005
2024-01-01 00:00:12.540,-0.471332,-0.0878,10.469817,-0.239688,-0.273777,-0.173709
2024-01-01 00:00:12.550,-0.600302,-0.02483,10.425485,-0.312958,-0.289691,-0.154848
2024-01-01 00:00:12.560,-0.461439,-0.095252,10.134413,-0.213464,-0.196531,-0.18332
2024-01-01 00:00:12.570,-0.527488,0.041113,10.049573,-0.262402,-0.277689,-0.226679
2024-01-01 00:00:12.580,-0.585174,-0.011256,9.804933,-0.271751,-0.275858,-0.119169
2024-01-01 00:00:12.590,-0.552304,-0.027595,9.901323,-0.251423,-0.27196,-0.14998
2024-01-01 00:00:12.600,-0.519299,0.090081,9.718714,-0.246719,-0.263309,-0.10131
2024-01-01 00:00:12.610,-0.539232,0.049128,9.419303,-0.202086,-0.289039,-0.12238
2024-01-01 00:00:12.620,-0.510043,0.124493,9.312996,-0.214528,-0.287968,-0.157076
2024-01-01 00:00:12.630,-0.575115,0.094681,9.26179,-0.248312,-0.246886,-0.14679
2024-01-01 00:00:12.640,-0.510892,0.128653,9.021288,-0.197889,-0.177172,-0.124658
2024-01-01 00:00:12.650,-0.578538,0.178245,8.871229,-0.210805,-0.155253,-0.109499
2024-01-01 00:00:12.660,-0.500158,0.189506,8.896567,-0.246146,-0.197228,-0.12521
2024-01-01 00:00:12.670,-0.524834,0.095976,8.749337,-0.224253,-0.117911,-0.097643
2024-01-01 00:00:12.680,-0.499806,0.159809,8.688791,-0.217879,-0.134978,-0.135181
2024-01-01 00:00:12.690,-0.383023,0.281717,8.554122,-0.176931,-0.090778,-0.151231
2024-01-01 00:00:12.700,-0.370529,0.247205,8.446518,-0.211576,-0.082099,-0.117879
2024-01-01 00:00:12.710,-0.373441,0.245318,8.582756,-0.20311,-0.032653,-0.103998
2024-01-01 00:00:12.720,-0.435927,0.220333,8.633333,-0.074886,0.078673,-0.14004
2024-01-01 00:00:12.730,-0.373234,0.250041,8.557123,-0.115474,0.051244,-0.137578
2024-01-01 00:00:12.740,-0.27163,0.217657,8.721338,-0.189069,0.087763,-0.077202
2024-01-01 00:00:12.750,-0.298927,0.327305,8.5979,-0.11055,0.0419,-0.095649
2024-01-01 00:00:12.760,-0.162721,0.314926,8.633524,-0.120759,0.130488,-0.080981
2024-01-01 00:00:12.770,-0.230737,0.30781,8.79123,-0.094242,0.163567,-0.079082
2024-01-01 00:00:12.780,-0.211654,0.3628,8.882648,-0.093704,0.161443,-0.014725
2024-01-01 00:00:12.790,-0.206805,0.39321,9.056164,-0.027495,0.228459,-0.014333
2024-01-01 00:00:12.800,-0.154106,0.487187,9.049096,-0.055802,0.227266,-0.080971
2024-01-01 00:00:12.810,-0.137287,0.313131,9.346681,-0.062042,0.270652,-0.051347
2024-01-01 00:00:12.820,-0.062692,0.451555,9.528604,0.00752,0.286988,-0.001254
2024-01-01 00:00:12.830,-0.018359,0.445748,9.508172,-0.018424,0.243521,5e-06
2024-01-01 00:00:12.840,-0.073363,0.360277,9.755441,-0.009409,0.277763,-0.010534
2024-01-01 00:00:12.850,-0.068377,0.41016,9.717231,0.014876,0.303862,-0.034623
2024-01-01 00:00:12.860,-0.061371,0.376505,10.034168,0.009156,0.357377,-0.012174
2024-01-01 00:00:12.870,0.087989,0.406686,10.176432,0.028911,0.305066,0.001567
2024-01-01 00:00:12.880,0.039356,0.469505,10.302337,0.013631,0.249181,0.034089
2024-01-01 00:00:12.890,0.018489,0.419619,10.366808,0.019775,0.288394,0.085512
2024-01-01 00:00:12.900,0.176737,0.40872,10.258827,0.021575,0.336295,0.022296
2024-01-01 00:00:12.910,0.312592,0.354406,10.56152,0.015829,0.275775,0.020476
2024-01-01 00:00:12.920,0.217625,0.293057,10.669433,0.055073,0.233175,0.056178
2024-01-01 00:00:12.930,0.28909,0.34691,10.735384,0.103635,0.215107,0.098361
2024-01-01 00:00:12.940,0.279643,0.406508,10.903757,0.130407,0.221395,0.031744
2024-01-01 00:00:12.950,0.298045,0.257473,10.925885,0.124158,0.171693,0.126243
2024-01-01 00:00:12.960,0.375339,0.26758,10.943049,0.031935,0.113142,0.084671
2024-01-01 00:00:12.970,0.340133,0.31205,10.957437,0.239932,0.103963,0.074692
2024-01-01 00:00:12.980,0.392057,0.240853,11.001076,0.226455,-0.038521,0.055273
2024-01-01 00:00:12.990,0.41751,0.233811,11.147044,0.204754,-0.094734,0.130675
2024-01-01 00:00:13.000,0.389377,0.234667,10.986292,0.287548,-0.046679,0.110169
2024-01-01 00:00:13.010,0.492285,0.169095,10.962923,0.152351,-0.085263,0.125853
2024-01-01 00:00:13.020,0.452313,0.169383,10.916101,0.303954,-0.148835,0.098719
2024-01-01 00:00:13.030,0.440064,0.233222,10.91256,0.168945,-0.111617,0.12075
2024-01-01 00:00:13.040,0.519823,0.111962,10.839952,0.236027,-0.27522,0.119857
2024-01-01 00:00:13.050,0.461524,0.076107,10.464227,0.166512,-0.235477,0.135104
2024-01-01 00:00:13.060,0.519563,0.102633,10.681528,0.236259,-0.256778,0.121228
2024-01-01 00:00:13.070,0.527622,0.148403,10.595842,0.259344,-0.334938,0.097996
2024-01-01 00:00:13.080,0.590479,0.079246,10.268825,0.235985,-0.195498,0.228087
2024-01-01 00:00:13.090,0.56618,0.042843,10.139497,0.28226,-0.351589,0.107037
2024-01-01 00:00:13.100,0.545587,0.045043,10.040099,0.253514,-0.322539,0.154582
2024-01-01 00:00:13.110,0.590239,-0.067855,9.870818,0.223584,-0.253185,0.096662
2024-01-01 00:00:13.120,0.619482,0.020704,9.802722,0.221647,-0.267637,0.090081
2024-01-01 00:00:13.130,0.576591,-0.008307,9.482943,0.289955,-0.352577,0.15258
2024-01-01 00:00:13.140,0.546059,-0.071297,9.405444,0.215286,-0.256186,0.154015
2024-01-01 00:00:13.150,0.474912,-0.023714,9.478561,0.291454,-0.26497,0.185255
2024-01-01 00:00:13.160,0.480351,-0.153308,9.147968,0.303684,-0.148113,0.157515
2024-01-01 00:00:13.170,0.509611,-0.063128,9.196584,0.155143,-0.226231,0.138653
2024-01-01 00:00:13.180,0.483857,-0.133977,9.010227,0.290434,-0.231765,0.111784
2024-01-01 00:00:13.190,0.492673,-0.18022,8.733139,0.331213,-0.242711,0.181885
2024-01-01 00:00:13.200,0.490816,-0.185514,8.837609,0.234411,-0.209532,0.160952
2024-01-01 00:00:13.210,0.498751,-0.210378,8.700344,0.244621,-0.183673,0.09141
2024-01-01 00:00:13.220,0.451399,-0.163788,8.611429,0.258634,-0.041935,0.125209
2024-01-01 00:00:13.230,0.46034,-0.29765,8.621556,0.184415,-0.076177,0.123235
2024-01-01 00:00:13.240,0.41883,-0.300117,8.610638,0.198026,-0.014339,0.102977
2024-01-01 00:00:13.250,0.294993,-0.22745,8.617002,0.113275,0.068171,0.130546
2024-01-01 00:00:13.260,0.323605,-0.325354,8.65957,0.175374,-0.090301,0.126017
2024-01-01 00:00:13.270,0.338898,-0.265846,8.619995,0.182225,0.12635,0.088677
2024-01-01 00:00:13.280,0.259957,-0.240126,8.516145,0.171463,0.099102,0.078967
2024-01-01 00:00:13.290,0.323674,-0.358294,8.643438,0.186761,0.150685,0.125063
2024-01-01 00:00:13.300,0.342441,-0.316078,8.987432,0.082125,0.11834,0.100504
2024-01-01 00:00:13.310,0.298152,-0.418569,8.895158,0.081194,0.150633,0.066865
2024-01-01 00:00:13.320,0.197035,-0.332643,9.125332,0.189188,0.238871,0.007771
2024-01-01 00:00:13.330,0.252023,-0.368629,9.158038,0.073159,0.356748,0.058725
2024-01-01 00:00:13.340,0.154088,-0.361866,9.186865,0.076663,0.307506,0.060939
2024-01-01 00:00:13.350,0.098464,-0.423387,9.321588,0.049067,0.336899,-0.051185
2024-01-01 00:00:13.360,0.052915,-0.478408,9.431553,-0.003091,0.276542,0.030352
2024-01-01 00:00:13.370,0.036441,-0.373076,9.437624,0.104615,0.264716,0.001562
2024-01-01 00:00:13.380,-4.3e-05,-0.502922,9.72347,-0.017582,0.260216,-0.001344
2024-01-01 00:00:13.390,-0.004378,-0.415758,9.965469,-0.062227,0.275256,-0.030739
2024-01-01 00:00:13.400,-0.037091,-0.351593,9.966426,-0.043046,0.193323,-0.016751
2024-01-01 00:00:13.410,-0.077032,-0.386447,10.190324,-0.135169,0.251938,0.020709
2024-01-01 00:00:13.420,-0.087138,-0.294651,10.363688,-0.082103,0.248423,-0.043115
2024-01-01 00:00:13.430,-0.080877,-0.33549,10.354301,-0.112229,0.252129,-0.009326
2024-01-01 00:00:13.440,-0.123873,-0.412787,10.513998,-0.047015,0.248351,-0.070922
2024-01-01 00:00:13.450,-0.275947,-0.370765,10.581517,-0.125354,0.237427,-0.032247
2024-01-01 00:00:13.460,-0.359056,-0.365257,10.698292,-0.060773,0.193084,-0.063048
2024-01-01 00:00:13.470,-0.213505,-0.431506,10.74905,-0.048358,0.136617,-0.060409
2024-01-01 00:00:13.480,-0.356531,-0.387713,10.853683,-0.091935,0.037102,-0.078382
2024-01-01 00:00:13.490,-0.326399,-0.355855,11.09759,-0.154024,0.074224,-0.066704
2024-01-01 00:00:13.500,-0.399556,-0.415623,10.952962,-0.147967,0.02067,-0.170041
2024-01-01 00:00:13.510,-0.455865,-0.296353,11.061755,-0.242506,0.057946,-0.142349
2024-01-01 00:00:13.520,-0.362149,-0.295068,11.019769,-0.183608,0.04498,-0.093639
2024-01-01 00:00:13.530,-0.373382,-0.349174,11.145475,-0.229994,0.011325,-0.17349
2024-01-01 00:00:13.540,-0.460867,-0.227319,11.130155,-0.161666,-0.032386,-0.133747
2024-01-01 00:00:13.550,-0.580808,-0.192885,11.051768,-0.076479,-0.110574,-0.1247
2024-01-01 00:00:13.560,-0.49623,-0.197689,10.948386,-0.188153,-0.162231,-0.152731
2024-01-01 00:00:13.570,-0.465375,-0.204886,10.831341,-0.319996,-0.20385,-0.15301
2024-01-01 00:00:13.580,-0.57329,-0.138104,10.666105,-0.245036,-0.269943,-0.128037
2024-01-01 00:00:13.590,-0.502837,-0.112081,10.81548,-0.226605,-0.170372,-0.109359
2024-01-01 00:00:13.600,-0.523668,-0.108635,10.486075,-0.233315,-0.251071,-0.171363
2024-01-01 00:00:13.610,-0.503037,-0.142722,10.476657,-0.278359,-0.32369,-0.162343
2024-01-01 00:00:13.620,-0.53329,-0.064799,10.376608,-0.232858,-0.31814,-0.169011
2024-01-01 00:00:13.630,-0.593334,0.004279,10.10907,-0.309707,-0.3318,-0.221191
2024-01-01 00:00:13.640,-0.48839,-0.062002,10.093458,-0.296436,-0.293968,-0.145263
2024-01-01 00:00:13.650,-0.557795,0.096161,9.925723,-0.21765,-0.24634,-0.121923
2024-01-01 00:00:13.660,-0.550992,-0.011552,9.856241,-0.300614,-0.316586,-0.119399
2024-01-01 00:00:13.670,-0.594157,0.039764,9.535139,-0.22195,-0.407171,-0.175439
2024-01-01 00:00:13.680,-0.56564,0.027803,9.327765,-0.315508,-0.295309,-0.185772
2024-01-01 00:00:13.690,-0.581828,0.095663,9.25336,-0.156117,-0.281034,-0.145967
2024-01-01 00:00:13.700,-0.538497,0.020169,9.180773,-0.279554,-0.268087,-0.119626
2024-01-01 00:00:13.710,-0.434703,0.10239,9.047872,-0.247678,-0.268298,-0.137251
2024-01-01 00:00:13.720,-0.577531,0.097051,8.901436,-0.214804,-0.202878,-0.130122
2024-01-01 00:00:13.730,-0.57651,0.179868,8.681935,-0.253646,-0.184328,-0.100972
2024-01-01 00:00:13.740,-0.407463,0.243671,8.787484,-0.211476,-0.160181,-0.153362
2024-01-01 00:00:13.750,-0.475022,0.246429,8.83739,-0.182394,-0.107426,-0.133296
2024-01-01 00:00:13.760,-0.479945,0.114989,8.662047,-0.15492,-0.116906,-0.072732
2024-01-01 00:00:13.770,-0.374895,0.354315,8.635243,-0.154466,-0.085788,-0.122329
2024-01-01 00:00:13.780,-0.436101,0.284748,8.610741,-0.193054,0.042348,-0.148698
2024-01-01 00:00:13.790,-0.292053,0.248001,8.592267,-0.181583,0.036477,-0.124632
2024-01-01 00:00:13.800,-0.325671,0.310538,8.64778,-0.045984,0.084907,-0.126209
2024-01-01 00:00:13.810,-0.358939,0.326304,8.634631,-0.104571,0.139316,-0.080524
2024-01-01 00:00:13.820,-0.200503,0.297873,8.624343,-0.186259,0.137686,-0.110979
2024-01-01 00:00:13.830,-0.311418,0.353692,8.647998,-0.122788,0.189655,-0.068541
2024-01-01 00:00:13.840,-0.215824,0.324821,8.769186,-0.131725,0.094144,-0.091062
2024-01-01 00:00:13.850,-0.20889,0.345152,8.905703,-0.108519,0.210814,-0.124753
2024-01-01 00:00:13.860,-0.128923,0.339974,8.959538,-0.149661,0.216207,-0.043713
2024-01-01 00:00:13.870,-0.085422,0.310284,9.125574,-0.094913,0.330863,-0.040136
2024-01-01 00:00:13.880,-0.130822,0.395525,9.26092,0.030386,0.311601,-0.020582
2024-01-01 00:00:13.890,-0.138562,0.422477,9.425839,-0.016906,0.248288,-0.047705
2024-01-01 00:00:13.900,-0.046015,0.422583,9.601406,-0.155928,0.309193,-0.042208
2024-01-01 00:00:13.910,-0.070784,0.440095,9.648901,0.044064,0.305684,0.001981
2024-01-01 00:00:13.920,0.096014,0.416203,9.684218,0.052365,0.322674,0.044301
2024-01-01 00:00:13.930,0.03443,0.37286,9.907703,-0.005417,0.247547,0.007863
2024-01-01 00:00:13.940,0.041501,0.439614,10.083584,0.06303,0.310916,0.029038
2024-01-01 00:00:13.950,0.100959,0.326522,10.07423,-0.001277,0.271905,0.015368
2024-01-01 00:00:13.960,0.056011,0.344774,10.467563,0.032563,0.283935,-0.012663
2024-01-01 00:00:13.970,0.106004,0.335666,10.495723,0.145193,0.216383,0.071182
2024-01-01 00:00:13.980,0.245291,0.430625,10.633428,0.070627,0.202664,0.077781
2024-01-01 00:00:13.990,0.182473,0.415213,10.819843,0.004385,0.266735,0.080046
2024-01-01 00:00:14.000,0.192279,0.382623,10.755483,0.108028,0.128729,0.061258
2024-01-01 00:00:14.010,0.299923,0.400805,10.933414,0.120202,0.103189,0.092391
2024-01-01 00:00:14.020,0.359901,0.291,10.945477,0.196562,0.118176,0.108799
2024-01-01 00:00:14.030,0.363054,0.338998,10.990577,0.149401,0.049177,0.137815
2024-01-01 00:00:14.040,0.402273,0.300806,10.978125,0.139135,0.009331,0.125784
2024-01-01 00:00:14.050,0.338783,0.333848,11.190829,0.223445,0.023909,0.10463
2024-01-01 00:00:14.060,0.328388,0.26918,11.028061,0.187621,-0.091781,0.069701
2024-01-01 00:00:14.070,0.496026,0.238184,11.097412,0.153844,-0.101882,0.119477
2024-01-01 00:00:14.080,0.424857,0.266081,10.857871,0.2582,0.016973,0.127968
2024-01-01 00:00:14.090,0.446964,0.263626,11.05221,0.218549,-0.095827,0.146591
2024-01-01 00:00:14.100,0.542848,0.166425,10.976141,0.216709,-0.187564,0.170555
2024-01-01 00:00:14.110,0.519544,0.176126,10.81903,0.23241,-0.158693,0.131254
2024-01-01 00:00:14.120,0.528127,0.104979,10.698579,0.176163,-0.178136,0.200848
2024-01-01 00:00:14.130,0.625445,0.011175,10.641763,0.208706,-0.180839,0.088275
2024-01-01 00:00:14.140,0.495101,0.123811,10.674894,0.23985,-0.257804,0.156383
2024-01-01 00:00:14.150,0.581936,0.12155,10.223382,0.233696,-0.22005,0.122102
2024-01-01 00:00:14.160,0.544819,0.081212,10.292027,0.309971,-0.384527,0.090593
2024-01-01 00:00:14.170,0.559957,-0.0526,10.015791,0.259292,-0.345263,0.143
2024-01-01 00:00:14.180,0.625629,0.003951,9.942548,0.292384,-0.290074,0.106068
2024-01-01 00:00:14.190,0.575385,-0.112883,9.777887,0.250467,-0.283504,0.145155
2024-01-01 00:00:14.200,0.575803,0.043068,9.617197,0.302309,-0.343166,0.15074
2024-01-01 00:00:14.210,0.59952,-0.103085,9.506551,0.26801,-0.278105,0.182437
2024-01-01 00:00:14.220,0.522774,-0.009209,9.276743,0.24659,-0.311764,0.102324
2024-01-01 00:00:14.230,0.492327,-0.047634,9.315986,0.242194,-0.280056,0.172968
2024-01-01 00:00:14.240,0.473474,-0.16258,8.964222,0.191239,-0.196944,0.146319
2024-01-01 00:00:14.250,0.417014,-0.196407,9.034695,0.259587,-0.181297,0.17141
2024-01-01 00:00:14.260,0.605986,-0.143986,8.86041,0.226706,-0.252039,0.124277
2024-01-01 00:00:14.270,0.434127,-0.224902,8.700579,0.197304,-0.22771,0.093475
2024-01-01 00:00:14.280,0.462653,-0.198114,8.732135,0.270648,-0.165663,0.09267
2024-01-01 00:00:14.290,0.442673,-0.247232,8.528127,0.144995,-0.114702,0.08575
2024-01-01 00:00:14.300,0.453111,-0.331233,8.608518,0.177848,-0.112961,0.133718
2024-01-01 00:00:14.310,0.458248,-0.37195,8.460737,0.241141,0.006366,0.158161
2024-01-01 00:00:14.320,0.438768,-0.266448,8.597688,0.19566,0.006731,0.090982
2024-01-01 00:00:14.330,0.343512,-0.322259,8.490239,0.167001,0.04484,0.12051
2024-01-01 00:00:14.340,0.339949,-0.337223,8.548645,0.170871,-0.003955,0.049289
2024-01-01 00:00:14.350,0.336875,-0.289097,8.645629,0.155673,0.151757,0.093431
2024-01-01 00:00:14.360,0.283641,-0.278424,8.614038,0.058747,-0.014881,0.100805
2024-01-01 00:00:14.370,0.348753,-0.36277,8.740532,0.104531,0.198831,0.029752
2024-01-01 00:00:14.380,0.264322,-0.377018,8.708036,0.189814,0.232684,0.059276
2024-01-01 00:00:14.390,0.247079,-0.344587,8.977077,0.062641,0.19063,0.078842
2024-01-01 00:00:14.400,0.213317,-0.445775,9.177416,0.065982,0.299258,-0.038875
2024-01-01 00:00:14.410,0.208064,-0.373804,9.379857,0.040824,0.252579,0.080807
2024-01-01 00:00:14.420,0.127146,-0.363076,9.293021,0.049329,0.27546,0.042818
2024-01-01 00:00:14.430,0.02155,-0.361023,9.485241,0.010113,0.302173,0.045063
2024-01-01 00:00:14.440,0.074376,-0.494877,9.421527,0.049061,0.453461,0.002453
2024-01-01 00:00:14.450,-0.010363,-0.437742,9.829371,0.019959,0.366244,-0.045626
2024-01-01 00:00:14.460,-0.03649,-0.443846,9.917813,0.034105,0.334856,0.013279
2024-01-01 00:00:14.470,-0.01297,-0.393822,9.962935,-0.071769,0.250813,-0.014011
2024-01-01 00:00:14.480,-0.012457,-0.372289,10.243922,-0.050822,0.296209,-0.01932
2024-01-01 00:00:14.490,-0.105135,-0.317637,10.26328,-0.059558,0.236974,0.003665
2024-01-01 00:00:14.500,-0.122219,-0.412016,10.379173,-0.039791,0.303518,-0.014682
2024-01-01 00:00:14.510,-0.083538,-0.40561,10.577685,-0.11632,0.250608,0.011642
2024-01-01 00:00:14.520,-0.187019,-0.3154,10.568398,-0.044698,0.165181,-0.049673
2024-01-01 00:00:14.530,-0.098696,-0.348924,10.837403,-0.04467,0.200241,-0.083131
2024-01-01 00:00:14.540,-0.22944,-0.289987,10.760393,-0.166587,0.125793,-0.075938
2024-01-01 00:00:14.550,-0.373802,-0.327335,10.835834,-0.154436,0.145589,-0.065466
2024-01-01 00:00:14.560,-0.275162,-0.386852,10.906763,-0.168791,0.06294,-0.054841
2024-01-01 00:00:14.570,-0.319759,-0.381745,11.083913,-0.022388,0.073678,-0.136416
2024-01-01 00:00:14.580,-0.299152,-0.377673,11.000739,-0.186786,0.075242,-0.098918
2024-01-01 00:00:14.590,-0.353551,-0.25097,10.952113,-0.092123,-3.8e-05,-0.057317
2024-01-01 00:00:14.600,-0.416371,-0.207641,11.004177,-0.249445,-0.05207,-0.118874
2024-01-01 00:00:14.610,-0.491493,-0.156681,11.025656,-0.245063,-0.057054,-0.089418
2024-01-01 00:00:14.620,-0.460077,-0.188215,10.892574,-0.238706,-0.066126,-0.107832
2024-01-01 00:00:14.630,-0.509953,-0.152657,10.83756,-0.254751,-0.188723,-0.098804
2024-01-01 00:00:14.640,-0.512645,-0.219503,11.02584,-0.233222,-0.150876,-0.156189
2024-01-01 00:00:14.650,-0.468718,-0.22737,10.700932,-0.261869,-0.126322,-0.16002
2024-01-01 00:00:14.660,-0.427465,-0.105509,10.643575,-0.273222,-0.189163,-0.138745
2024-01-01 00:00:14.670,-0.502282,-0.105084,10.52786,-0.179356,-0.237608,-0.188334
2024-01-01 00:00:14.680,-0.591068,-0.098116,10.401072,-0.180298,-0.227851,-0.152985
2024-01-01 00:00:14.690,-0.516473,-0.061285,10.353437,-0.1974,-0.252982,-0.139333
2024-01-01 00:00:14.700,-0.484448,-0.041381,10.241739,-0.2212,-0.249904,-0.094901
2024-01-01 00:00:14.710,-0.578472,0.029961,9.998674,-0.244446,-0.396803,-0.137368
2024-01-01 00:00:14.720,-0.5565,0.053948,9.778563,-0.27476,-0.377235,-0.131188
2024-01-01 00:00:14.730,-0.54899,0.039876,9.83284,-0.297533,-0.249157,-0.114991
2024-01-01 00:00:14.740,-0.587002,0.078377,9.577748,-0.230831,-0.37038,-0.178328
2024-01-01 00:00:14.750,-0.511491,0.085088,9.581382,-0.305911,-0.266698,-0.15329
2024-01-01 00:00:14.760,-0.544228,0.05942,9.125939,-0.294324,-0.292092,-0.074014
2024-01-01 00:00:14.770,-0.509628,0.143117,9.190785,-0.183538,-0.308238,-0.147084
2024-01-01 00:00:14.780,-0.565577,0.058011,9.20694,-0.141878,-0.221331,-0.108653
2024-01-01 00:00:14.790,-0.531879,0.202438,8.913895,-0.212156,-0.205861,-0.11018
2024-01-01 00:00:14.800,-0.460936,0.11151,8.824758,-0.170611,-0.084526,-0.179904
2024-01-01 00:00:14.810,-0.501034,0.20643,8.780383,-0.231562,-0.1928,-0.122247
2024-01-01 00:00:14.820,-0.379722,0.170124,8.64047,-0.278734,-0.058848,-0.122708
2024-01-01 00:00:14.830,-0.468126,0.259562,8.604111,-0.173093,-0.080726,-0.112322
2024-01-01 00:00:14.840,-0.417442,0.248909,8.562197,-0.166388,-0.09754,-0.139535
2024-01-01 00:00:14.850,-0.361103,0.188718,8.515965,-0.181749,0.010219,-0.144707
2024-01-01 00:00:14.860,-0.456304,0.306417,8.658512,-0.187294,0.033698,-0.119385
2024-01-01 00:00:14.870,-0.449752,0.272431,8.608324,-0.116304,0.042284,-0.101583
2024-01-01 00:00:14.880,-0.413077,0.360291,8.619759,-0.202375,0.08833,-0.056303
2024-01-01 00:00:14.890,-0.247587,0.330119,8.709311,-0.179924,0.078657,-0.030222
2024-01-01 00:00:14.900,-0.311163,0.362507,8.684423,-0.179301,0.099216,-0.035439
2024-01-01 00:00:14.910,-0.127537,0.306361,8.719772,-0.111864,0.208544,-0.043862
2024-01-01 00:00:14.920,-0.254658,0.335058,8.823779,-0.157325,0.187095,-0.091888
2024-01-01 00:00:14.930,-0.187437,0.350622,8.975314,-0.123605,0.219281,-0.065903
