timestamp,acc_x,acc_y,acc_z,gyro_x,gyro_y,gyro_z
2024-01-01 00:00:00.000,0.08496,1.097998,10.011077,0.773865,-0.102752,0.105951
2024-01-01 00:00:00.010,-0.138531,1.179753,10.964922,0.805515,0.311323,0.070722
2024-01-01 00:00:00.020,0.079073,0.888552,11.422343,0.418125,0.199705,0.423881
2024-01-01 00:00:00.030,0.395689,0.83584,11.204479,0.731792,0.069343,0.118714
2024-01-01 00:00:00.040,0.324018,0.709316,13.138517,0.553855,0.43933,0.456522
2024-01-01 00:00:00.050,1.052018,0.723686,12.561133,0.679331,0.26909,0.133528
2024-01-01 00:00:00.060,0.198454,0.732846,12.967849,0.499761,0.320671,0.438098
2024-01-01 00:00:00.070,0.486003,0.786981,13.546229,0.59088,0.689087,0.41113
2024-01-01 00:00:00.080,0.216319,0.412927,13.01838,0.379998,0.366815,0.363455
2024-01-01 00:00:00.090,0.497922,0.196975,12.649086,0.551266,0.320304,0.241535
2024-01-01 00:00:00.100,0.989443,0.442101,12.078718,0.361345,0.434123,0.314138
2024-01-01 00:00:00.110,0.675935,-0.200746,12.450653,0.434227,0.581524,0.328313
2024-01-01 00:00:00.120,0.943294,0.427774,11.769708,0.250045,0.719017,0.077638
2024-01-01 00:00:00.130,1.133617,0.141501,11.530402,0.270028,0.606401,0.305353
2024-01-01 00:00:00.140,0.83432,-0.011922,10.675392,-0.000814,0.52919,0.042253
2024-01-01 00:00:00.150,0.601473,-0.29583,9.994336,0.138526,0.712087,0.0344
2024-01-01 00:00:00.160,1.035121,-0.131734,9.339535,-0.06311,0.738032,0.006643
2024-01-01 00:00:00.170,1.006356,-0.297571,9.190405,-0.195808,0.530102,-0.035641
2024-01-01 00:00:00.180,0.674119,-0.16193,7.903284,-0.201247,0.414802,-0.160946
2024-01-01 00:00:00.190,0.509057,0.127619,7.692495,-0.218864,0.692111,-0.170562
2024-01-01 00:00:00.200,0.212238,-0.358904,7.018316,-0.365012,0.336474,-0.260154
2024-01-01 00:00:00.210,0.606378,-1.049517,6.751849,-0.221646,0.459796,-0.342416
2024-01-01 00:00:00.220,0.565073,-0.436029,6.955245,-0.502007,0.398443,-0.361231
2024-01-01 00:00:00.230,1.022073,-0.293347,6.724945,-0.28562,0.439955,-0.421281
2024-01-01 00:00:00.240,1.139038,-0.1493,6.282462,-0.269014,0.205263,-0.344211
2024-01-01 00:00:00.250,0.391501,-0.503983,6.294482,-0.536826,0.371381,-0.294963
2024-01-01 00:00:00.260,0.840001,-0.582547,6.839319,-0.602506,0.114697,-0.24696
2024-01-01 00:00:00.270,0.279922,-0.65941,7.529726,-0.559417,0.193013,-0.252037
2024-01-01 00:00:00.280,0.468028,-0.54895,7.597959,-0.502329,0.284747,-0.155879
2024-01-01 00:00:00.290,0.406399,-0.468685,8.663793,-0.734818,0.20712,-0.082808
2024-01-01 00:00:00.300,0.247467,-0.72127,8.679312,-0.539229,0.142615,0.000708
2024-01-01 00:00:00.310,0.333674,-0.730761,10.189108,-0.505224,0.07427,0.093206
2024-01-01 00:00:00.320,-0.31923,-0.414081,9.918409,-0.524041,0.028409,0.108753
2024-01-01 00:00:00.330,0.198187,-0.523844,10.583837,-0.712219,-0.084399,0.030474
2024-01-01 00:00:00.340,0.128922,-0.56758,11.521388,-0.493416,-0.303539,0.10298
2024-01-01 00:00:00.350,-0.410187,-0.47207,11.681177,-0.484711,-0.207822,0.397926
2024-01-01 00:00:00.360,-0.330135,-0.782144,12.672098,-0.566166,-0.374018,0.304375
2024-01-01 00:00:00.370,-1.083799,-0.710904,12.490626,-0.427482,-0.434371,0.395022
2024-01-01 00:00:00.380,-1.112095,-0.469081,12.031661,-0.461407,-0.454401,0.443382
2024-01-01 00:00:00.390,-0.940455,-0.593091,12.871825,-0.349678,-0.265594,0.44895
2024-01-01 00:00:00.400,-0.082609,-0.430644,12.89816,-0.349984,-0.708612,0.382501
2024-01-01 00:00:00.410,-0.246583,-0.101062,12.162704,-0.402252,-0.400106,0.365554
2024-01-01 00:00:00.420,-0.827867,-0.315052,12.572533,-0.486256,-0.305372,0.416446
2024-01-01 00:00:00.430,-0.488461,-0.288986,11.15653,0.020289,-0.25122,0.268732
2024-01-01 00:00:00.440,-0.715317,-0.237719,11.324638,-0.380527,-0.510347,0.296276
2024-01-01 00:00:00.450,-0.947785,0.040348,11.045206,-0.164494,-0.54606,0.182976
2024-01-01 00:00:00.460,-0.888106,-0.134363,10.684052,-0.158365,-0.389719,0.197491
2024-01-01 00:00:00.470,-0.854219,-0.336742,9.537851,0.121801,-0.433576,0.131177
2024-01-01 00:00:00.480,-0.764038,0.132184,9.142297,0.252098,-0.490795,-0.158272
2024-01-01 00:00:00.490,-0.90756,0.106135,8.413286,0.147205,-0.607269,-0.116295
2024-01-01 00:00:00.500,-1.320476,0.441476,8.40285,0.360268,-0.564682,-0.276508
2024-01-01 00:00:00.510,-0.67566,0.494068,7.882749,0.470884,-0.523661,-0.167091
2024-01-01 00:00:00.520,-0.42978,0.619965,7.057908,0.162799,-0.710299,-0.27345
2024-01-01 00:00:00.530,-0.586558,0.272804,6.541411,0.19166,-0.383329,-0.222864
2024-01-01 00:00:00.540,-0.178813,0.419782,6.642546,0.526574,-0.417696,-0.562812
2024-01-01 00:00:00.550,-0.132311,0.731772,6.357895,0.513204,-0.25952,-0.354372
2024-01-01 00:00:00.560,-0.313988,0.803593,6.729206,0.422425,-0.442839,-0.198654
2024-01-01 00:00:00.570,-0.322032,0.612657,6.549265,0.55489,-0.468475,-0.27455
2024-01-01 00:00:00.580,-0.641269,0.512673,7.310749,0.712968,-0.185716,-0.433005
2024-01-01 00:00:00.590,-0.085295,0.867099,8.027256,0.633562,-0.112936,-0.284905
2024-01-01 00:00:00.600,-0.199922,0.840879,8.76305,0.690741,-0.19532,-0.114816
2024-01-01 00:00:00.610,-0.747709,0.845588,9.369381,0.880029,-0.477354,-0.039233
2024-01-01 00:00:00.620,-0.067194,0.442793,8.998872,0.747813,0.126754,-0.024547
2024-01-01 00:00:00.630,0.049184,0.677747,10.375577,0.795488,-0.077727,-0.009939
2024-01-01 00:00:00.640,-0.366004,0.812142,10.47969,0.659104,0.160667,0.18609
2024-01-01 00:00:00.650,0.162268,0.711221,10.996004,0.849731,0.147636,0.094949
2024-01-01 00:00:00.660,0.13555,0.911549,11.315772,0.684409,0.243265,0.358194
2024-01-01 00:00:00.670,-0.306041,0.631017,11.950208,0.500493,0.263655,0.412877
2024-01-01 00:00:00.680,-0.053527,0.243666,12.170107,0.166642,0.512729,0.362999
2024-01-01 00:00:00.690,0.983616,0.534308,13.215572,0.467529,0.466663,0.202503
2024-01-01 00:00:00.700,0.436805,0.195591,12.919842,0.451016,0.480586,0.360349
2024-01-01 00:00:00.710,0.699125,0.388335,13.657838,0.5504,0.502698,0.151718
2024-01-01 00:00:00.720,1.209194,0.565061,13.359634,0.278095,0.625752,0.425992
2024-01-01 00:00:00.730,1.154834,0.792043,12.474086,0.55124,0.420986,0.388352
2024-01-01 00:00:00.740,0.852296,0.353869,11.720778,0.121572,0.381138,0.018806
2024-01-01 00:00:00.750,0.711009,0.122074,11.029698,-0.003145,0.573031,0.183758
2024-01-01 00:00:00.760,0.756002,0.290323,11.358341,0.084212,0.540503,0.148127
2024-01-01 00:00:00.770,0.23588,0.034784,10.960433,-0.099464,0.600025,0.215926
2024-01-01 00:00:00.780,0.620694,-0.390892,9.50091,0.194835,0.453423,-0.12767
2024-01-01 00:00:00.790,0.522463,-0.43902,9.424148,-0.293848,0.494495,-0.075976
2024-01-01 00:00:00.800,0.144617,0.115789,8.482442,-0.156744,0.582787,-0.279198
2024-01-01 00:00:00.810,0.73357,-0.394715,8.141924,-0.129341,0.402755,-0.359005
2024-01-01 00:00:00.820,0.073321,-0.118702,7.616004,-0.321465,0.691877,-0.18693
2024-01-01 00:00:00.830,0.781702,-0.515297,7.077963,-0.532609,0.765914,-0.304636
2024-01-01 00:00:00.840,0.887065,-0.517599,7.265439,-0.608171,0.485286,-0.333799
2024-01-01 00:00:00.850,0.895858,-0.49522,7.088436,-0.444585,0.320591,-0.397754
2024-01-01 00:00:00.860,0.313373,-0.369685,6.607073,-0.305798,0.401518,-0.338315
2024-01-01 00:00:00.870,0.579999,-0.201076,6.603449,-0.552508,0.449184,-0.263869
2024-01-01 00:00:00.880,0.475635,-0.829018,6.77624,-0.452268,0.217403,-0.362061
2024-01-01 00:00:00.890,0.751654,-0.862011,7.112909,-0.806315,0.070709,-0.372183
2024-01-01 00:00:00.900,0.555361,-0.704434,8.218475,-0.640528,0.299908,-0.264307
2024-01-01 00:00:00.910,0.738599,-0.644587,7.898668,-0.694792,0.195896,-0.122405
2024-01-01 00:00:00.920,0.034813,-0.682783,8.308231,-0.874876,0.212111,-0.143155
2024-01-01 00:00:00.930,0.468271,-0.521217,9.28119,-0.629888,0.013475,0.041456
2024-01-01 00:00:00.940,0.018556,-1.047076,9.768405,-0.698508,-0.081249,0.107522
2024-01-01 00:00:00.950,-0.432376,-0.941443,10.249817,-0.698514,-0.180722,0.208452
2024-01-01 00:00:00.960,-0.098963,-0.866605,11.035698,-0.78209,-0.063158,0.095615
2024-01-01 00:00:00.970,-0.444402,-0.362771,12.379244,-0.426177,-0.383203,0.258538
2024-01-01 00:00:00.980,0.299297,-0.656827,12.190795,-0.756153,-0.468269,0.256159
2024-01-01 00:00:00.990,-0.087483,-0.825103,12.654333,-0.526818,-0.203647,0.300508
2024-01-01 00:00:01.000,0.394813,-0.826861,12.692821,-0.468057,-0.236605,0.4138
2024-01-01 00:00:01.010,-0.70413,-0.718613,12.058854,-0.27296,-0.414758,0.350471
2024-01-01 00:00:01.020,-0.715324,-0.44658,12.600902,-0.333269,-0.372777,0.284342
2024-01-01 00:00:01.030,-0.828581,-0.323139,12.040141,-0.536131,-0.29953,0.3508
2024-01-01 00:00:01.040,0.071376,-0.520202,12.182661,-0.462877,-0.32075,0.301378
2024-01-01 00:00:01.050,-0.95515,-0.221125,12.645471,-0.028507,-0.494148,0.234911
2024-01-01 00:00:01.060,-1.025768,0.217957,11.549521,-0.182607,-0.714481,0.35629
2024-01-01 00:00:01.070,-0.485567,-0.171797,11.696591,-0.258978,-0.412604,0.147156
2024-01-01 00:00:01.080,-0.700317,0.067239,10.7743,-0.26646,-0.595481,-0.075448
2024-01-01 00:00:01.090,-0.614113,0.084756,9.285003,-0.116084,-0.520842,-0.036589
2024-01-01 00:00:01.100,-0.555594,0.230066,9.484171,-0.124394,-0.422898,-0.002298
2024-01-01 00:00:01.110,-1.015363,-0.116353,9.380982,0.195755,-0.530155,-0.073523
2024-01-01 00:00:01.120,-0.316316,0.307074,8.487579,0.274965,-0.468424,-0.111047
2024-01-01 00:00:01.130,-1.089231,0.535447,8.276862,0.342988,-0.72526,-0.303691
2024-01-01 00:00:01.140,-0.588489,0.820513,7.501532,0.316634,-0.510276,-0.420528
2024-01-01 00:00:01.150,-0.516979,0.367111,6.277429,0.384448,-0.593925,-0.479567
2024-01-01 00:00:01.160,-0.159195,0.237331,6.919594,0.575273,-0.410672,-0.387858
2024-01-01 00:00:01.170,-0.268163,0.259706,5.981373,0.543707,-0.489195,-0.227557
2024-01-01 00:00:01.180,-0.537261,0.468292,6.75309,0.459885,-0.32593,-0.321689
2024-01-01 00:00:01.190,-0.707098,0.377746,7.323752,0.480466,-0.197715,-0.426364
2024-01-01 00:00:01.200,-0.018464,0.738111,7.043232,0.374584,-0.417468,-0.251631
2024-01-01 00:00:01.210,-0.357275,0.774001,7.313356,0.667323,-0.243566,-0.268189
2024-01-01 00:00:01.220,0.165762,0.676199,8.836796,0.48804,-0.148318,-0.312898
2024-01-01 00:00:01.230,-1.449987,0.718181,8.682478,0.255692,-0.264596,-0.192747
2024-01-01 00:00:01.240,-0.948132,0.832738,9.211646,0.933738,0.017706,-0.130049
2024-01-01 00:00:01.250,0.199311,0.625586,9.447754,0.614028,0.041966,-0.089608
2024-01-01 00:00:01.260,0.348843,0.81034,10.243686,0.777225,-0.048749,-0.086143
2024-01-01 00:00:01.270,0.336059,0.834555,10.411716,0.731777,0.111792,-0.063536
2024-01-01 00:00:01.280,0.626042,0.894873,11.791724,0.725807,0.060685,0.195464
2024-01-01 00:00:01.290,-0.188084,0.304733,12.016138,0.482189,0.088578,0.138282
2024-01-01 00:00:01.300,0.673439,1.045473,13.001235,0.364232,-0.015746,0.269369
2024-01-01 00:00:01.310,0.34754,0.479938,12.171025,0.564202,0.241521,0.372681
2024-01-01 00:00:01.320,1.1423,0.570989,13.040903,0.242174,0.301208,0.390831
2024-01-01 00:00:01.330,0.900009,0.554046,12.709839,0.430685,0.33203,0.360562
2024-01-01 00:00:01.340,0.822376,0.586215,13.124339,0.438624,0.641561,0.20631
2024-01-01 00:00:01.350,0.983755,0.037715,13.139533,0.377388,0.408793,0.341118
2024-01-01 00:00:01.360,0.649425,0.359575,12.589595,0.414988,0.548544,0.077908
2024-01-01 00:00:01.370,0.212227,0.231917,11.877818,0.294466,0.531825,0.159505
2024-01-01 00:00:01.380,0.518782,0.113389,11.214939,0.307929,0.534041,0.227864
2024-01-01 00:00:01.390,0.69206,0.162403,10.711499,0.010711,0.337414,0.02794
2024-01-01 00:00:01.400,0.807966,-0.016757,10.353389,-0.165413,0.661135,0.039064
2024-01-01 00:00:01.410,0.609046,0.257188,9.508122,0.189863,0.865767,0.034677
2024-01-01 00:00:01.420,0.378269,0.064558,9.961962,0.04404,0.643254,-0.025002
2024-01-01 00:00:01.430,0.295782,-0.180363,7.828339,-0.234078,0.459459,-0.195577
2024-01-01 00:00:01.440,1.111993,-0.178829,7.820249,-0.231587,0.51312,-0.260456
2024-01-01 00:00:01.450,0.792174,-0.268311,6.664432,-0.089532,0.554563,-0.300134
2024-01-01 00:00:01.460,0.678623,-0.323122,7.017018,-0.506961,0.547161,-0.350829
2024-01-01 00:00:01.470,0.588251,-0.340845,6.672782,-0.504877,0.529486,-0.155528
2024-01-01 00:00:01.480,0.726362,-0.325456,7.095117,-0.466398,0.494962,-0.336217
2024-01-01 00:00:01.490,0.655335,-0.495978,6.936367,-0.286116,0.231759,-0.401341
2024-01-01 00:00:01.500,0.234064,-0.738621,6.823321,-0.49651,0.305727,-0.348786
2024-01-01 00:00:01.510,0.948254,-0.732161,7.410383,-0.60737,0.240185,-0.225391
2024-01-01 00:00:01.520,0.755575,-0.717376,7.167157,-0.841002,0.240128,-0.309017
2024-01-01 00:00:01.530,0.730969,-0.486682,7.926232,-0.872835,0.151601,-0.253277
2024-01-01 00:00:01.540,0.411236,-0.709646,8.685139,-0.590808,0.130538,-0.103646
2024-01-01 00:00:01.550,0.447454,-0.648159,8.827328,-0.700175,0.047688,-0.094704
2024-01-01 00:00:01.560,0.253266,-0.65967,9.801221,-0.838566,0.046492,-0.138102
2024-01-01 00:00:01.570,0.222438,-0.65944,10.236132,-0.690867,-0.134028,0.066584
2024-01-01 00:00:01.580,-0.198963,-0.692955,11.79011,-0.671112,-0.247023,0.066927
2024-01-01 00:00:01.590,0.348548,-0.731184,11.30096,-0.784695,-0.282603,0.133631
2024-01-01 00:00:01.600,-0.764739,-0.798527,12.126702,-0.61105,-0.351981,0.277022
2024-01-01 00:00:01.610,-0.687168,-0.880466,12.092631,-0.770074,-0.180919,0.113289
2024-01-01 00:00:01.620,-0.554612,-0.609997,12.80957,-0.910887,-0.401529,0.416161
2024-01-01 00:00:01.630,-0.655961,-0.510949,12.84442,-0.549678,-0.36487,0.350711
2024-01-01 00:00:01.640,-0.255022,-0.732452,12.983309,-0.320842,-0.604424,0.286551
2024-01-01 00:00:01.650,-0.786486,-0.694598,12.995404,-0.640016,-0.311591,0.341093
2024-01-01 00:00:01.660,-0.452605,-0.301533,12.302287,-0.110351,-0.608625,0.351655
2024-01-01 00:00:01.670,-0.003836,-0.360435,12.693849,-0.445275,-0.648641,0.17862
2024-01-01 00:00:01.680,-0.488074,0.261819,11.680811,-0.146005,-0.415719,0.087714
2024-01-01 00:00:01.690,-0.881588,-0.092637,11.843064,-0.29151,-0.552867,0.424559
2024-01-01 00:00:01.700,-1.000858,-0.228932,10.025549,0.013023,-0.654734,0.211749
2024-01-01 00:00:01.710,-0.863824,-0.271902,9.938915,-0.0648,-0.752906,-0.080599
2024-01-01 00:00:01.720,-0.852886,-0.112178,9.393792,0.193652,-0.481602,0.050024
2024-01-01 00:00:01.730,-0.821778,-0.282138,8.768734,0.142648,-0.698628,0.008536
2024-01-01 00:00:01.740,-0.626197,0.602804,8.416241,0.256451,-0.614299,-0.077985
2024-01-01 00:00:01.750,-0.80428,0.383272,7.869067,0.193113,-0.528708,-0.061726
2024-01-01 00:00:01.760,-0.553708,0.138956,7.575716,0.449315,-0.351879,-0.102857
2024-01-01 00:00:01.770,-0.886856,0.552446,7.788172,0.472471,-0.362404,-0.267471
2024-01-01 00:00:01.780,-0.650648,0.406331,6.782088,0.313393,-0.45686,-0.165475
2024-01-01 00:00:01.790,-0.062616,0.508602,6.73445,0.353139,-0.390094,-0.297816
2024-01-01 00:00:01.800,-1.090182,0.306057,7.165262,0.291838,-0.415089,-0.376796
2024-01-01 00:00:01.810,-0.105196,0.505266,6.755798,0.292289,-0.029022,-0.326154
2024-01-01 00:00:01.820,-0.740031,0.42784,6.654425,0.446963,-0.457916,-0.390751
2024-01-01 00:00:01.830,0.08033,0.930319,7.584542,0.452321,-0.195233,-0.226172
2024-01-01 00:00:01.840,0.007645,0.641049,8.468509,0.459631,-0.339834,-0.39913
2024-01-01 00:00:01.850,0.242817,0.62807,8.172032,0.571482,0.178407,-0.166636
2024-01-01 00:00:01.860,-0.309887,0.484573,8.826864,0.615825,0.056972,-0.075032
2024-01-01 00:00:01.870,-0.220983,0.8203,9.089528,0.803914,0.162159,-0.018948
2024-01-01 00:00:01.880,-0.437648,0.735734,9.943037,0.753128,0.206358,0.259161
2024-01-01 00:00:01.890,-0.484798,0.488584,10.179146,0.578741,0.073882,0.188596
2024-01-01 00:00:01.900,0.642735,0.801563,11.340814,0.642424,0.327683,0.068956
2024-01-01 00:00:01.910,0.25754,0.503419,12.40873,0.467787,0.155676,0.285519
2024-01-01 00:00:01.920,0.023918,0.31948,12.740286,0.723133,0.121501,0.373332
2024-01-01 00:00:01.930,-0.02365,0.659456,12.331226,0.663697,0.318653,0.367623
2024-01-01 00:00:01.940,0.567013,0.57792,13.132405,0.336504,0.394482,0.369721
2024-01-01 00:00:01.950,0.324997,0.342803,12.502656,0.101228,0.459463,0.393964
2024-01-01 00:00:01.960,0.377993,0.70268,13.006089,0.477105,0.498342,0.259992
2024-01-01 00:00:01.970,0.697085,0.310045,12.661353,0.40423,0.081426,0.069648
2024-01-01 00:00:01.980,1.288387,0.395345,12.177209,0.29532,0.249145,0.321782
2024-01-01 00:00:01.990,0.6327,0.64951,11.641487,0.6973,0.37322,0.222841
2024-01-01 00:00:02.000,1.004165,-0.235887,12.127892,0.125323,0.516738,0.150784
2024-01-01 00:00:02.010,1.004189,0.082391,10.956287,-0.030841,0.528919,0.056245
2024-01-01 00:00:02.020,1.090357,0.013401,10.134367,0.252944,0.612097,0.133345
2024-01-01 00:00:02.030,0.714792,0.040974,9.818061,-0.017471,0.300949,0.027449
2024-01-01 00:00:02.040,0.65459,0.047579,9.361689,-0.131889,0.383323,-0.059961
2024-01-01 00:00:02.050,0.861164,0.069952,9.091513,-0.121506,0.513213,-0.032022
2024-01-01 00:00:02.060,0.437701,0.060634,7.454034,-0.227569,0.51975,-0.313049
2024-01-01 00:00:02.070,0.741552,-0.572661,7.827112,-0.275201,0.383646,-0.085279
2024-01-01 00:00:02.080,0.803979,-0.116245,7.076222,-0.292728,0.498921,-0.121515
2024-01-01 00:00:02.090,0.661651,-0.530971,6.891829,-0.401409,0.781687,-0.297065
2024-01-01 00:00:02.100,0.792025,-0.530299,6.250898,-0.260297,0.416978,-0.396583
2024-01-01 00:00:02.110,0.090226,-0.039476,7.154501,-0.720818,0.574827,-0.492064
2024-01-01 00:00:02.120,0.49817,-0.541076,6.389752,-0.464792,0.401642,-0.327341
2024-01-01 00:00:02.130,0.472649,-0.560353,6.599792,-0.683229,0.404252,-0.353495
2024-01-01 00:00:02.140,0.4051,-0.515774,7.454524,-0.560251,0.436496,-0.328358
2024-01-01 00:00:02.150,1.039212,-0.223745,8.016308,-0.677146,0.275936,-0.239229
2024-01-01 00:00:02.160,-0.224398,-0.517557,8.472867,-0.703416,0.122229,-0.340555
2024-01-01 00:00:02.170,-0.165411,-0.351951,9.436125,-0.700075,0.294623,-0.023198
2024-01-01 00:00:02.180,0.151278,-0.533723,9.547129,-0.79036,-0.276409,0.065161
2024-01-01 00:00:02.190,-0.016937,-0.624309,9.433972,-0.936337,-0.131593,-0.017706
2024-01-01 00:00:02.200,0.025177,-0.946121,10.475692,-0.626463,-0.134932,0.038681
2024-01-01 00:00:02.210,-0.630667,-0.541125,11.160029,-0.591532,-0.087369,0.180477
2024-01-01 00:00:02.220,0.123023,-0.93275,11.729312,-0.821744,-0.382137,0.165851
2024-01-01 00:00:02.230,-0.658032,-0.376236,11.883894,-0.592217,-0.25685,0.287527
2024-01-01 00:00:02.240,-0.49085,-0.760787,12.076347,-0.520226,-0.289345,0.26306
2024-01-01 00:00:02.250,-0.514166,-0.581399,11.85687,-0.920288,-0.232319,0.29812
2024-01-01 00:00:02.260,-0.44801,-0.478724,12.903012,-0.561551,-0.367803,0.396483
2024-01-01 00:00:02.270,-1.116856,-0.671691,13.053527,-0.355942,-0.529285,0.323369
2024-01-01 00:00:02.280,-0.673441,-0.710549,12.702946,-0.324337,-0.432721,0.237573
2024-01-01 00:00:02.290,-0.714118,-0.19138,12.326916,-0.202219,-0.482422,0.254069
2024-01-01 00:00:02.300,-0.84381,-0.049333,11.358118,-0.541623,-0.521337,0.219933
2024-01-01 00:00:02.310,-0.690645,-0.163497,11.474546,-0.501789,-0.506948,0.15516
2024-01-01 00:00:02.320,-0.955324,-0.519497,11.181301,0.040981,-0.656403,0.13345
2024-01-01 00:00:02.330,-0.64343,-0.20796,10.506134,-0.184429,-0.403762,0.102149
2024-01-01 00:00:02.340,-1.018205,-0.117226,8.86845,-0.119342,-0.536412,-0.03249
2024-01-01 00:00:02.350,-0.785725,0.446207,9.563856,-0.268168,-0.823825,0.015591
2024-01-01 00:00:02.360,-1.189915,0.308376,8.833402,0.088347,-0.489859,-0.261226
2024-01-01 00:00:02.370,-0.810979,0.17401,7.870706,0.168728,-0.470432,-0.150522
2024-01-01 00:00:02.380,-0.694012,0.235109,7.792464,0.342733,-0.518703,-0.225336
2024-01-01 00:00:02.390,-0.164186,0.211485,7.472737,0.440174,-0.50063,-0.17517
2024-01-01 00:00:02.400,-0.513984,0.627175,6.067644,0.446557,-0.295566,-0.294348
2024-01-01 00:00:02.410,-1.292345,0.653328,6.640616,0.331302,-0.53867,-0.275862
2024-01-01 00:00:02.420,-0.593971,0.556807,6.659822,0.493019,-0.50672,-0.326072
2024-01-01 00:00:02.430,-0.421463,0.470613,6.571205,0.762012,-0.384056,-0.386435
2024-01-01 00:00:02.440,-0.37144,0.284655,6.933986,0.473065,-0.322795,-0.297117
2024-01-01 00:00:02.450,0.451944,0.568097,7.367599,0.609619,-0.327571,-0.243388
2024-01-01 00:00:02.460,-0.261568,0.552944,7.56097,0.837706,-0.152147,-0.26301
2024-01-01 00:00:02.470,-0.032212,0.190631,7.954429,0.578702,-0.248194,-0.071073
2024-01-01 00:00:02.480,-0.415549,0.63184,8.866879,0.755413,-0.221842,-0.058241
2024-01-01 00:00:02.490,-0.116772,0.622105,9.289335,0.65012,-0.037961,0.124758
2024-01-01 00:00:02.500,0.430905,0.912078,10.226217,0.614825,-0.132536,0.031789
2024-01-01 00:00:02.510,0.280856,0.738851,11.381568,0.880323,0.188581,0.136733
2024-01-01 00:00:02.520,0.073499,0.813907,10.922953,1.030138,-0.035485,0.316026
2024-01-01 00:00:02.530,0.277686,0.707002,10.949599,0.683587,0.124798,0.235929
2024-01-01 00:00:02.540,0.050204,0.603528,12.178728,0.27234,0.103846,0.243708
2024-01-01 00:00:02.550,0.369872,0.853763,12.386408,0.653154,0.228517,0.335613
2024-01-01 00:00:02.560,0.253997,0.439319,12.575418,0.506092,0.393789,0.437637
2024-01-01 00:00:02.570,0.449337,0.534537,12.347047,0.29008,0.202134,0.304884
2024-01-01 00:00:02.580,0.139629,0.441057,12.991288,0.657464,0.327849,0.351337
2024-01-01 00:00:02.590,0.348729,0.248949,12.73462,0.572325,0.40989,0.418389
2024-01-01 00:00:02.600,0.589051,0.238486,12.761209,0.491468,0.563984,0.435682
2024-01-01 00:00:02.610,0.605363,0.540404,11.80321,0.312005,0.673982,0.455337
2024-01-01 00:00:02.620,0.034994,0.183965,11.682598,0.46173,0.63688,0.225481
2024-01-01 00:00:02.630,1.330092,-0.013636,11.566844,0.473122,0.570735,0.214332
2024-01-01 00:00:02.640,0.841754,0.167644,10.104729,-0.05553,0.575422,0.070372
2024-01-01 00:00:02.650,1.148086,0.012041,10.32872,0.065553,0.531989,0.052379
2024-01-01 00:00:02.660,0.624638,0.212405,9.207988,-0.398279,0.459107,-0.108022
2024-01-01 00:00:02.670,0.798726,-0.105156,8.503272,-0.01557,0.703106,-0.055273
2024-01-01 00:00:02.680,1.191395,-0.434345,8.17627,-0.413662,0.717852,-0.233745
2024-01-01 00:00:02.690,0.981518,-0.228134,7.892591,-0.213606,0.479224,-0.115013
2024-01-01 00:00:02.700,0.426923,-0.106193,6.418903,-0.327501,0.538689,-0.181866
2024-01-01 00:00:02.710,0.800144,-0.331278,7.468023,-0.281888,0.540352,-0.35612
2024-01-01 00:00:02.720,0.159235,-0.713425,6.798487,-0.38856,0.372394,-0.27177
2024-01-01 00:00:02.730,0.748133,-0.286654,6.937432,-0.59181,0.332879,-0.302424
2024-01-01 00:00:02.740,0.706785,-0.529915,6.379047,-0.367522,0.389995,-0.410248
2024-01-01 00:00:02.750,0.748254,-0.589767,6.8013,-0.479749,0.335738,-0.234673
2024-01-01 00:00:02.760,0.911891,-0.283567,7.286007,-0.342186,0.098381,-0.249184
2024-01-01 00:00:02.770,0.495027,-0.611294,7.62417,-0.646172,0.235999,-0.157439
2024-01-01 00:00:02.780,-0.08723,-0.492312,8.806872,-0.681574,0.258651,-0.05108
2024-01-01 00:00:02.790,0.351655,-0.653407,8.334541,-0.526963,0.163513,0.020476
2024-01-01 00:00:02.800,0.158296,-0.894463,9.541118,-0.709586,0.097779,0.00651
2024-01-01 00:00:02.810,-0.236981,-0.651876,10.018206,-0.444614,-0.048344,0.13486
2024-01-01 00:00:02.820,-0.664439,-0.632479,10.459886,-0.510981,0.00483,0.033646
2024-01-01 00:00:02.830,-0.932254,-0.297876,11.835544,-0.708376,-0.302158,0.293214
2024-01-01 00:00:02.840,-0.261094,-0.578456,11.725444,-0.887078,-0.282161,0.151213
2024-01-01 00:00:02.850,-0.394205,-0.387567,12.282337,-0.412612,-0.301362,0.225776
2024-01-01 00:00:02.860,-0.874175,-0.98178,12.31306,-0.488585,-0.277261,0.439291
2024-01-01 00:00:02.870,-0.431275,-0.700266,12.349607,-0.217895,-0.400769,0.198627
2024-01-01 00:00:02.880,-0.664302,-0.45941,12.683942,-0.42694,-0.12632,0.378584
2024-01-01 00:00:02.890,-0.92707,-0.767668,13.215736,-0.309225,-0.394455,0.239658
2024-01-01 00:00:02.900,-0.641626,0.013437,13.323601,-0.130432,-0.388946,0.269546
2024-01-01 00:00:02.910,-1.007301,-0.251389,12.582299,-0.644458,-0.427446,0.234137
2024-01-01 00:00:02.920,-0.613597,-0.504499,12.918923,-0.190262,-0.523741,0.342956
2024-01-01 00:00:02.930,-1.034228,-0.189379,11.691827,-0.308397,-0.416097,0.15532
2024-01-01 00:00:02.940,-0.93318,-0.331322,10.995155,0.091218,-0.340248,0.372165
2024-01-01 00:00:02.950,-1.030435,-0.367069,10.537894,-0.170424,-0.593738,0.067887
2024-01-01 00:00:02.960,-1.00329,-0.072538,10.00193,-0.082559,-0.514468,0.111409
2024-01-01 00:00:02.970,-0.966223,-0.108447,9.905684,0.064079,-0.59134,-0.141118
2024-01-01 00:00:02.980,-0.799172,0.219862,8.966368,-0.033697,-0.436163,-0.249946
2024-01-01 00:00:02.990,-0.850167,0.228338,9.01494,0.152375,-0.518214,-0.198343
2024-01-01 00:00:03.000,-0.509347,0.326027,7.767896,0.363049,-0.410552,-0.228144
2024-01-01 00:00:03.010,-0.439661,0.336038,7.52438,0.153976,-0.384079,-0.241915
2024-01-01 00:00:03.020,-0.824951,0.246464,7.693912,0.471838,-0.548494,-0.434343
2024-01-01 00:00:03.030,0.104748,0.169641,7.694503,0.55483,-0.631654,-0.378246
2024-01-01 00:00:03.040,-0.847956,0.753737,7.332441,0.457593,-0.408068,-0.261239
2024-01-01 00:00:03.050,-0.999751,0.500076,7.351172,0.371297,-0.513092,-0.297346
2024-01-01 00:00:03.060,-0.416471,0.494224,6.721995,0.352667,-0.256293,-0.417545
2024-01-01 00:00:03.070,-0.000231,1.119099,7.273393,0.460269,-0.376787,-0.462487
2024-01-01 00:00:03.080,-0.476668,0.655531,7.07639,0.763922,-0.312865,-0.160552
2024-01-01 00:00:03.090,-0.247462,0.927919,8.444028,0.564529,-0.123116,-0.229496
2024-01-01 00:00:03.100,0.156364,0.807103,8.004751,0.656251,-0.085923,-0.24235
2024-01-01 00:00:03.110,-0.220966,0.353543,8.434216,0.51519,0.05891,-0.123966
2024-01-01 00:00:03.120,0.44302,0.533362,9.57972,0.818018,0.019093,-0.103878
2024-01-01 00:00:03.130,-0.388009,0.621531,10.093967,0.799142,0.181789,0.155716
2024-01-01 00:00:03.140,0.071239,0.866725,10.736787,0.667969,-0.022663,0.211355
2024-01-01 00:00:03.150,0.564752,0.521816,10.914067,0.603747,0.218606,0.369081
2024-01-01 00:00:03.160,0.199421,0.866068,11.953243,0.476462,0.105563,0.101088
2024-01-01 00:00:03.170,0.02576,0.65009,12.702826,0.485561,0.441646,0.386403
2024-01-01 00:00:03.180,-0.170635,0.755722,12.830175,0.52097,0.372902,0.428415
2024-01-01 00:00:03.190,0.163292,0.626407,12.101568,0.615704,0.169326,0.204025
2024-01-01 00:00:03.200,1.049536,0.81439,12.776658,0.540783,0.200318,0.285906
2024-01-01 00:00:03.210,0.772641,0.581702,13.69435,0.329341,0.343848,0.508285
2024-01-01 00:00:03.220,0.777228,0.789789,12.761648,0.481091,0.42231,0.195887
2024-01-01 00:00:03.230,0.252064,0.098254,12.595215,0.213487,0.38753,0.159104
2024-01-01 00:00:03.240,1.029637,0.539189,11.193945,0.115811,0.547304,0.331233
2024-01-01 00:00:03.250,0.735393,0.048519,11.185481,0.369079,0.756865,0.379036
2024-01-01 00:00:03.260,0.613025,-0.015199,11.384812,0.090685,0.478969,0.109048
2024-01-01 00:00:03.270,0.491727,0.099962,9.76267,0.009385,0.576628,0.049316
2024-01-01 00:00:03.280,1.03969,0.036909,9.812826,0.409635,0.495982,-0.133657
2024-01-01 00:00:03.290,0.682433,0.204732,8.93449,-0.154128,0.510388,0.039371
2024-01-01 00:00:03.300,0.814542,-0.479797,8.100602,0.067752,0.566625,-0.114235
2024-01-01 00:00:03.310,0.800312,-0.450018,7.995386,-0.417464,0.502453,-0.166577
2024-01-01 00:00:03.320,0.668811,-0.621282,6.860196,-0.287847,0.570838,-0.158104
2024-01-01 00:00:03.330,0.727277,-0.402476,6.928858,-0.374027,0.658758,-0.182918
2024-01-01 00:00:03.340,1.536576,-0.241691,7.076195,-0.169623,0.500566,-0.328902
2024-01-01 00:00:03.350,0.037882,-0.705545,6.525506,-0.579257,0.472249,-0.463512
2024-01-01 00:00:03.360,0.468442,-0.403139,7.06817,-0.662702,0.426841,-0.517417
2024-01-01 00:00:03.370,0.691922,-0.543255,6.872548,-0.375707,0.464002,-0.348021
2024-01-01 00:00:03.380,0.198882,-0.91652,7.74474,-0.627693,0.319723,-0.268968
2024-01-01 00:00:03.390,0.265971,-0.693424,6.893837,-0.708374,0.203115,-0.325975
2024-01-01 00:00:03.400,0.722729,-0.98593,8.586444,-0.703842,0.275069,-0.245426
2024-01-01 00:00:03.410,-0.184267,-0.988541,8.419765,-0.812542,0.312634,-0.120401
2024-01-01 00:00:03.420,0.551794,-0.786106,8.534343,-0.782139,0.124888,-0.044623
2024-01-01 00:00:03.430,0.192248,-0.62833,9.741876,-0.598397,0.192575,0.076351
2024-01-01 00:00:03.440,0.718151,-0.712928,10.928297,-0.849249,-0.066548,-0.098377
2024-01-01 00:00:03.450,0.271592,-0.620216,11.05129,-0.553539,-0.103947,0.23629
2024-01-01 00:00:03.460,-0.064266,-0.892922,11.641328,-0.650299,-0.250095,0.226087
2024-01-01 00:00:03.470,-0.393777,-0.355606,11.74353,-0.505663,-0.358448,0.232843
2024-01-01 00:00:03.480,-0.275942,-0.467298,12.624989,-0.415172,-0.278779,0.315833
2024-01-01 00:00:03.490,-0.193839,-0.829824,12.414108,-0.499905,-0.203147,0.276448
2024-01-01 00:00:03.500,-0.028489,-0.619967,12.74187,-0.547684,-0.178564,0.412642
2024-01-01 00:00:03.510,-0.006361,-0.47057,12.998057,-0.436735,-0.225095,0.202541
2024-01-01 00:00:03.520,-0.6954,-0.063311,13.054712,-0.287687,-0.515259,0.400514
2024-01-01 00:00:03.530,-1.000202,-0.441049,12.891029,-0.458344,-0.348176,0.521908
2024-01-01 00:00:03.540,-0.618707,-0.483675,12.089758,-0.351263,-0.475302,0.213761
2024-01-01 00:00:03.550,-1.141985,-0.213823,12.146988,-0.440597,-0.327646,0.379188
2024-01-01 00:00:03.560,-0.526135,-0.31942,11.420891,-0.28007,-0.770861,0.2765
2024-01-01 00:00:03.570,-0.780328,-0.013789,11.30907,-0.159337,-0.334095,0.08095
2024-01-01 00:00:03.580,-0.794233,-0.002497,10.791539,-0.088049,-0.521569,0.182964
2024-01-01 00:00:03.590,-0.575435,0.043053,10.393571,-0.302761,-0.395244,-0.120206
2024-01-01 00:00:03.600,-0.412724,0.177319,9.989161,0.016647,-0.388618,-0.043979
2024-01-01 00:00:03.610,-0.997133,0.056125,8.822128,-0.028835,-0.6137,-0.129415
2024-01-01 00:00:03.620,-0.825141,0.010171,8.71677,0.144049,-0.553403,-0.167323
2024-01-01 00:00:03.630,-0.364025,0.384182,8.284345,0.3298,-0.560502,-0.340683
2024-01-01 00:00:03.640,-1.113323,0.262004,8.011058,0.401627,-0.639284,-0.484332
2024-01-01 00:00:03.650,-0.742469,0.15068,6.783157,0.576428,-0.567008,-0.342439
2024-01-01 00:00:03.660,-0.770882,0.869649,6.816836,0.426097,-0.467889,-0.42666
2024-01-01 00:00:03.670,0.113916,0.362486,6.303195,0.359465,-0.362384,-0.520896
2024-01-01 00:00:03.680,-0.713133,0.493757,7.533112,0.514755,-0.419553,-0.098321
2024-01-01 00:00:03.690,0.689228,0.493952,6.888294,0.471009,-0.308893,-0.442393
2024-01-01 00:00:03.700,-0.708718,0.648237,7.862752,0.708256,-0.204746,-0.265124
2024-01-01 00:00:03.710,-0.093221,0.492869,7.885904,0.377561,0.06642,-0.173937
2024-01-01 00:00:03.720,0.561385,0.351689,8.401414,0.325206,-0.177332,-0.349166
2024-01-01 00:00:03.730,-0.187811,0.977756,8.325006,0.71593,-0.148648,-0.046476
2024-01-01 00:00:03.740,-0.017564,0.735949,9.447685,0.843737,-0.140773,-0.093394
2024-01-01 00:00:03.750,-0.519099,0.807175,9.3837,0.580291,-0.108966,0.112838
2024-01-01 00:00:03.760,0.078473,1.04053,10.194788,0.543759,0.152938,0.163454
2024-01-01 00:00:03.770,-0.256946,1.027833,11.226688,0.615482,0.098395,0.230888
2024-01-01 00:00:03.780,0.031141,0.790755,11.96781,0.340418,0.147401,0.105855
2024-01-01 00:00:03.790,-0.133582,0.264559,11.784256,0.50195,0.18365,0.315582
2024-01-01 00:00:03.800,-0.329239,0.533975,13.146418,0.670037,0.386416,0.346221
2024-01-01 00:00:03.810,0.059739,0.826561,12.745806,0.329179,0.479811,0.30826
2024-01-01 00:00:03.820,1.071541,0.192194,12.031492,0.416044,0.377527,0.308773
2024-01-01 00:00:03.830,0.622598,0.846742,13.1688,0.502759,0.379347,0.475659
2024-01-01 00:00:03.840,0.317009,0.385767,12.779543,0.369165,0.379155,0.426251
2024-01-01 00:00:03.850,0.731831,0.175547,13.020611,0.204769,0.440589,0.308471
2024-01-01 00:00:03.860,0.771169,0.256669,11.50222,-0.126088,0.392719,0.115543
2024-01-01 00:00:03.870,0.838216,0.223481,11.208696,0.211184,0.726644,0.21048
2024-01-01 00:00:03.880,0.526112,0.358682,11.813326,0.228914,0.313812,0.184894
2024-01-01 00:00:03.890,1.050995,0.03568,10.559247,-0.035797,0.492192,0.215918
2024-01-01 00:00:03.900,0.759879,0.206828,9.612505,0.002368,0.696044,-0.010192
2024-01-01 00:00:03.910,0.365892,-0.27735,9.587579,-0.030975,0.555094,0.011778
2024-01-01 00:00:03.920,0.55486,0.246247,8.927721,-0.320133,0.494656,0.004931
2024-01-01 00:00:03.930,0.657787,-0.5531,8.146621,-0.180476,0.557937,-0.127902
2024-01-01 00:00:03.940,0.737179,-0.285449,7.484451,-0.375403,0.569072,-0.295267
2024-01-01 00:00:03.950,0.800249,-0.508768,6.800806,-0.20506,0.439185,-0.264699
2024-01-01 00:00:03.960,0.511475,-0.299188,7.283541,-0.207182,0.288884,-0.381014
2024-01-01 00:00:03.970,-0.004192,-0.182009,7.233073,-0.056119,0.239068,-0.416153
2024-01-01 00:00:03.980,1.002527,-0.770327,6.673661,-0.38094,0.346413,-0.203936
2024-01-01 00:00:03.990,0.351839,-0.309135,6.550175,-0.311387,0.413048,-0.253656
2024-01-01 00:00:04.000,0.392346,-0.858649,6.948336,-0.583868,0.155304,-0.168294
2024-01-01 00:00:04.010,-0.275159,-0.157735,7.344598,-0.822843,0.560783,-0.348741
2024-01-01 00:00:04.020,0.32687,-0.70541,6.887415,-0.410232,0.254336,-0.209238
2024-01-01 00:00:04.030,0.299772,-0.609335,8.034526,-0.781822,0.124916,-0.305169
2024-01-01 00:00:04.040,0.905864,-0.853401,8.670921,-0.574033,-0.027353,-0.145472
2024-01-01 00:00:04.050,0.155107,-0.846105,9.35336,-0.724436,-0.069126,-0.109757
2024-01-01 00:00:04.060,0.038403,-0.589402,10.127837,-0.363834,-0.003273,0.006448
2024-01-01 00:00:04.070,-0.224124,-1.003256,10.333216,-0.474606,-0.16909,-0.021363
2024-01-01 00:00:04.080,-0.857676,-0.796855,11.048088,-0.70662,0.131329,0.031524
2024-01-01 00:00:04.090,-0.514717,-0.827015,11.084136,-0.522786,-0.093784,0.340622
2024-01-01 00:00:04.100,-0.46297,-0.602638,12.322637,-0.735764,-0.324979,0.220938
2024-01-01 00:00:04.110,-0.03213,-0.331235,13.111953,-0.458885,-0.314348,0.25466
2024-01-01 00:00:04.120,-1.28442,-0.450275,12.195784,-0.320879,-0.362153,0.431527
2024-01-01 00:00:04.130,-0.347435,-0.639478,13.001063,-0.708262,-0.416685,0.345827
2024-01-01 00:00:04.140,-0.592895,-0.371106,13.458099,-0.452317,-0.594818,0.367114
2024-01-01 00:00:04.150,-0.937988,-0.520854,13.64087,-0.180875,-0.345993,0.337568
2024-01-01 00:00:04.160,-0.450714,-0.61853,12.51668,-0.399428,-0.665738,0.341068
2024-01-01 00:00:04.170,-0.808986,-0.350401,12.677506,-0.153646,-0.337545,0.210982
2024-01-01 00:00:04.180,-1.319118,-0.306716,12.481827,-0.409398,-0.31092,0.316482
2024-01-01 00:00:04.190,-0.22596,-0.424898,11.615515,-0.070332,-0.482468,0.264632
2024-01-01 00:00:04.200,-0.8888,-0.497372,10.678387,0.040471,-0.607011,0.092126
2024-01-01 00:00:04.210,-0.732302,-0.107824,10.190397,-0.044646,-0.77314,0.010907
2024-01-01 00:00:04.220,-0.739942,0.051915,9.375503,-0.087165,-0.735353,0.086905
2024-01-01 00:00:04.230,-0.231521,-0.039256,10.11834,0.164012,-0.571783,-0.121175
2024-01-01 00:00:04.240,-1.000167,0.185838,8.399346,0.138945,-0.48618,-0.095141
2024-01-01 00:00:04.250,-0.943293,0.326546,7.307375,-0.204599,-0.420246,-0.202661
2024-01-01 00:00:04.260,-0.507755,0.412675,7.612999,0.391871,-0.410258,-0.016984
2024-01-01 00:00:04.270,-0.536391,0.247643,7.129203,0.457365,-0.400578,-0.397618
2024-01-01 00:00:04.280,-0.603875,0.70147,6.402827,0.386195,-0.453142,-0.355432
2024-01-01 00:00:04.290,-0.979095,0.271047,6.541069,0.529232,-0.558134,-0.333217
2024-01-01 00:00:04.300,-0.295559,0.562452,7.048689,0.606286,-0.430842,-0.284301
2024-01-01 00:00:04.310,-0.002182,0.776291,7.19015,0.518163,-0.350679,-0.345915
2024-01-01 00:00:04.320,-0.21208,1.147219,7.579685,0.235154,-0.470895,-0.359963
2024-01-01 00:00:04.330,-0.360624,0.730811,7.947675,0.779823,-0.270601,-0.387935
2024-01-01 00:00:04.340,-0.187058,0.615857,8.25175,0.481512,-0.13768,-0.253788
2024-01-01 00:00:04.350,-0.821368,0.749566,8.676439,0.545313,-0.124658,0.117978
2024-01-01 00:00:04.360,-0.571933,0.433906,8.872848,0.915514,-0.206374,-0.338521
2024-01-01 00:00:04.370,-0.491525,0.484793,10.020617,0.76394,0.275405,-0.222278
2024-01-01 00:00:04.380,0.126907,0.7793,10.731006,0.479435,0.101192,-0.000132
2024-01-01 00:00:04.390,0.711318,0.586174,10.245201,0.67856,0.113755,-0.00999
2024-01-01 00:00:04.400,0.682555,0.497245,10.779477,0.634129,0.158443,0.229708
2024-01-01 00:00:04.410,0.441021,0.499329,11.232228,0.60902,0.502054,0.440691
2024-01-01 00:00:04.420,0.785206,0.782027,11.845849,0.314905,0.025722,0.232861
2024-01-01 00:00:04.430,0.330411,0.895886,13.044912,0.725326,0.376722,0.362997
2024-01-01 00:00:04.440,0.762213,0.582448,12.661267,0.4887,0.450916,0.536283
2024-01-01 00:00:04.450,0.338876,0.57006,13.326305,0.20425,0.371527,0.450829
2024-01-01 00:00:04.460,0.178758,0.64521,12.780902,0.440498,0.217254,0.479576
2024-01-01 00:00:04.470,0.832524,0.334681,12.830172,0.399873,0.518034,0.362852
2024-01-01 00:00:04.480,0.67398,0.370721,12.508617,0.342532,0.446742,0.170036
2024-01-01 00:00:04.490,0.831364,0.015964,11.9412,0.094487,0.499638,0.263367
2024-01-01 00:00:04.500,1.426675,0.236523,12.136953,0.359682,0.525704,0.334603
2024-01-01 00:00:04.510,0.927086,-0.053758,11.286052,0.14718,0.563556,0.039521
2024-01-01 00:00:04.520,1.000979,0.17708,10.600058,0.10959,0.580158,-0.104787
2024-01-01 00:00:04.530,0.107594,-0.173313,10.123398,0.053901,0.292117,-0.001217
2024-01-01 00:00:04.540,1.122624,-0.522957,9.300336,0.016184,0.441085,0.084505
2024-01-01 00:00:04.550,0.639406,-0.329147,8.642946,-0.228434,0.43333,-0.164087
2024-01-01 00:00:04.560,0.486619,-0.421788,8.21488,-0.30682,0.671353,-0.263588
2024-01-01 00:00:04.570,0.151775,-0.372235,8.103239,-0.348797,0.468343,-0.012694
2024-01-01 00:00:04.580,0.451201,-0.333173,6.969078,-0.329127,0.703223,-0.502241
2024-01-01 00:00:04.590,0.728736,-0.165727,6.530279,-0.185869,0.357554,-0.218741
2024-01-01 00:00:04.600,0.815833,-0.166638,7.269389,-0.382719,0.426949,-0.338007
2024-01-01 00:00:04.610,0.32236,-0.574841,6.960169,-0.311327,0.481259,-0.234245
2024-01-01 00:00:04.620,0.687835,-0.65866,6.796316,-0.561496,0.221256,-0.41489
2024-01-01 00:00:04.630,0.800804,-0.197324,6.455704,-0.470115,0.217561,-0.265566
2024-01-01 00:00:04.640,0.097395,-0.596199,6.965927,-0.707821,0.256038,-0.415129
2024-01-01 00:00:04.650,0.289231,-0.511924,7.958446,-0.78654,0.514876,-0.151693
2024-01-01 00:00:04.660,0.390291,-0.749954,8.615574,-0.520403,0.409676,-0.287205
2024-01-01 00:00:04.670,0.316651,-0.528687,9.362281,-0.681755,0.204537,-0.094284
2024-01-01 00:00:04.680,0.437379,-0.620053,9.551959,-0.606723,0.245552,0.034638
2024-01-01 00:00:04.690,-0.653257,-0.983577,9.897564,-0.934215,-0.212453,-0.025093
2024-01-01 00:00:04.700,0.33344,-0.317626,10.247874,-0.73883,0.068598,-0.106288
2024-01-01 00:00:04.710,-0.184501,-0.932242,11.071598,-0.674403,-0.041388,-0.044829
2024-01-01 00:00:04.720,-0.55047,-0.56528,11.665943,-0.611029,-0.118778,0.315288
2024-01-01 00:00:04.730,-0.574089,-0.527644,12.116263,-0.829344,-0.051621,0.306193
2024-01-01 00:00:04.740,-0.677153,-0.517181,12.633563,-0.496384,-0.356253,0.314227
2024-01-01 00:00:04.750,-0.529782,-0.765006,12.615092,-0.408394,-0.500245,0.396189
2024-01-01 00:00:04.760,-0.52065,-0.190282,13.164009,-0.354467,-0.352261,0.317046
2024-01-01 00:00:04.770,-0.642447,-0.516604,13.183834,-0.351229,-0.3462,0.307378
2024-01-01 00:00:04.780,-0.774172,-0.229846,13.102183,-0.435643,-0.490834,0.319616
2024-01-01 00:00:04.790,-0.839388,0.085925,12.707536,-0.229611,-0.681178,0.247007
2024-01-01 00:00:04.800,-0.224683,-0.398697,12.595189,-0.339934,-0.263178,0.401008
2024-01-01 00:00:04.810,-0.650253,-0.442301,11.845708,0.033717,-0.351943,0.146469
2024-01-01 00:00:04.820,-0.699905,-0.259239,11.061943,0.009594,-0.458649,0.183718
2024-01-01 00:00:04.830,-1.420323,-0.469015,10.713008,-0.076831,-0.536306,0.09744
2024-01-01 00:00:04.840,-1.043373,-0.154454,9.531153,-0.11158,-0.581026,-0.085888
2024-01-01 00:00:04.850,-1.107086,0.049828,9.039537,0.166514,-0.550702,-0.119156
2024-01-01 00:00:04.860,-0.449437,0.222329,8.764722,0.183921,-0.620555,-0.119566
2024-01-01 00:00:04.870,-0.848454,0.393649,7.518251,0.194309,-0.418795,-0.125886
2024-01-01 00:00:04.880,-0.167404,-0.049942,7.129046,-0.06795,-0.659234,-0.275891
2024-01-01 00:00:04.890,-0.770022,0.365643,6.946216,0.25231,-0.472305,-0.185956
2024-01-01 00:00:04.900,-0.384191,0.381157,6.817306,0.507142,-0.522645,-0.263005
2024-01-01 00:00:04.910,-0.646398,0.467791,6.60172,0.49231,-0.254645,-0.384314
2024-01-01 00:00:04.920,-0.091915,0.384541,7.260125,0.235307,-0.484897,-0.151347
2024-01-01 00:00:04.930,-0.663732,0.96794,6.522545,0.466679,-0.404603,-0.584913
2024-01-01 00:00:04.940,-0.133564,0.618112,6.243567,0.701701,-0.187052,-0.340441
2024-01-01 00:00:04.950,-0.53355,0.942526,7.224536,0.121439,-0.146925,-0.168264
2024-01-01 00:00:04.960,-0.286478,0.743707,7.441441,0.683597,-0.067698,-0.386563
2024-01-01 00:00:04.970,-0.203094,0.655712,8.043636,0.691617,0.018583,-0.379404
2024-01-01 00:00:04.980,0.433141,0.679423,8.681723,0.767558,-0.180575,-0.144458
2024-01-01 00:00:04.990,0.371607,0.520219,9.020916,0.907945,0.04554,-0.175345
2024-01-01 00:00:05.000,0.128815,0.609683,9.449127,0.725119,-0.066234,-0.086682
2024-01-01 00:00:05.010,0.400266,0.988516,10.465893,0.504287,0.108134,0.164069
2024-01-01 00:00:05.020,0.123354,0.937689,11.026532,0.741019,0.048529,0.04024
2024-01-01 00:00:05.030,-0.371238,0.58489,11.864765,0.7084,0.121035,0.289536
2024-01-01 00:00:05.040,-0.00855,0.561325,11.999007,0.663146,0.037504,0.333047
2024-01-01 00:00:05.050,0.871258,0.387995,13.214869,0.762973,0.277206,0.433877
2024-01-01 00:00:05.060,0.317706,0.441202,12.438737,0.603473,0.218487,0.297097
2024-01-01 00:00:05.070,0.492225,0.750868,12.836602,0.388596,0.1088,0.49428
2024-01-01 00:00:05.080,0.980409,0.457517,12.486407,0.435921,0.280725,0.365949
2024-01-01 00:00:05.090,0.926682,0.236597,12.430082,0.437014,0.522344,0.36944
2024-01-01 00:00:05.100,0.667934,0.285294,11.822821,0.1633,0.246198,0.274265
2024-01-01 00:00:05.110,0.395632,0.215398,12.083229,0.323239,0.578606,0.349376
2024-01-01 00:00:05.120,1.081703,0.238868,10.516924,0.074943,0.855425,0.322766
2024-01-01 00:00:05.130,0.728753,0.413673,11.597312,0.084706,0.400722,0.197049
2024-01-01 00:00:05.140,0.89589,-0.052844,10.736602,-0.014491,0.500147,0.059666
2024-01-01 00:00:05.150,0.884794,-0.134525,10.119308,0.016672,0.527613,-0.007963
2024-01-01 00:00:05.160,0.598732,0.227342,9.806199,0.107225,0.427481,0.157757
2024-01-01 00:00:05.170,0.758531,0.215464,9.268367,-0.1357,0.371134,-0.312195
2024-01-01 00:00:05.180,0.558245,-0.243138,8.946606,-0.237633,0.457821,-0.238215
2024-01-01 00:00:05.190,0.589855,-0.355217,8.148274,0.000823,0.327773,-0.226171
2024-01-01 00:00:05.200,0.974084,-0.152477,6.904028,-0.261627,0.479433,-0.292286
2024-01-01 00:00:05.210,0.478967,-0.616617,6.716027,-0.050817,0.479547,-0.364565
2024-01-01 00:00:05.220,0.401382,-0.630726,7.916408,-0.386061,0.28573,-0.275414
2024-01-01 00:00:05.230,0.575328,-0.352426,6.216547,-0.50417,0.449898,-0.313579
2024-01-01 00:00:05.240,0.406634,-0.066153,6.797389,-0.606547,0.477322,-0.244519
2024-01-01 00:00:05.250,0.84377,-0.580079,7.398581,-0.56715,0.413786,-0.232067
2024-01-01 00:00:05.260,0.930987,-0.817344,7.544874,-0.351836,0.220625,-0.426293
2024-01-01 00:00:05.270,0.178588,-0.729834,7.768455,-0.835582,0.159288,-0.252069
2024-01-01 00:00:05.280,0.313514,-0.702059,8.091019,-0.968408,0.223483,-0.045457
2024-01-01 00:00:05.290,0.302353,-0.558515,8.770575,-0.915096,0.326516,-0.236432
2024-01-01 00:00:05.300,0.35837,-0.572106,8.947685,-0.559982,0.303233,-0.016193
2024-01-01 00:00:05.310,-0.587179,-0.599163,9.780675,-0.591107,0.062661,-0.152828
2024-01-01 00:00:05.320,-0.385573,-0.476929,10.296828,-0.977161,0.083145,0.040414
2024-01-01 00:00:05.330,0.214886,-1.207848,10.998938,-0.84855,-0.151985,0.031815
2024-01-01 00:00:05.340,0.181032,-0.551466,11.594791,-0.828945,-0.367711,0.30493
2024-01-01 00:00:05.350,-0.76743,-0.793486,11.861575,-0.406709,-0.050114,0.138479
2024-01-01 00:00:05.360,-0.681944,-0.672272,12.739116,-0.817837,-0.359315,0.206658
2024-01-01 00:00:05.370,-0.074794,-0.439395,12.428975,-0.468899,-0.304495,0.411952
2024-01-01 00:00:05.380,-0.450534,-0.577017,12.896915,-0.653817,-0.251175,0.285198
2024-01-01 00:00:05.390,-0.425955,-0.481386,13.110032,-0.629251,-0.525942,0.570882
2024-01-01 00:00:05.400,-0.4051,-0.440559,12.692217,-0.592729,-0.35192,0.392694
2024-01-01 00:00:05.410,-0.527967,-0.263857,13.112984,-0.293897,-0.47726,0.265708
2024-01-01 00:00:05.420,-0.733585,-0.544015,12.653357,-0.244801,-0.555229,0.291607
2024-01-01 00:00:05.430,-0.933414,-0.29457,11.404662,-0.250709,-0.335693,0.263984
2024-01-01 00:00:05.440,-0.881715,0.033616,11.400495,-0.290635,-0.459272,0.160656
2024-01-01 00:00:05.450,-0.482441,-0.426312,10.971667,-0.063894,-0.660172,0.186219
2024-01-01 00:00:05.460,-0.999564,0.18881,9.873764,0.124058,-0.286698,0.290451
2024-01-01 00:00:05.470,-0.396372,0.096232,9.704266,0.029537,-0.583102,0.123309
2024-01-01 00:00:05.480,-0.687339,0.08395,9.274342,0.106587,-0.701348,-0.187863
2024-01-01 00:00:05.490,-0.459197,0.13545,8.186363,0.223625,-0.399436,-0.13765
2024-01-01 00:00:05.500,-1.002478,-0.006704,7.737231,0.249585,-0.565827,-0.324785
2024-01-01 00:00:05.510,-0.940211,0.080474,7.22204,0.230065,-0.379593,-0.259646
2024-01-01 00:00:05.520,-0.785784,0.541673,7.58362,0.242304,-0.327634,-0.467789
2024-01-01 00:00:05.530,-0.795107,0.172305,6.122755,0.475936,-0.389996,-0.293327
2024-01-01 00:00:05.540,-1.404457,0.660446,6.871503,0.562327,-0.467342,-0.175554
2024-01-01 00:00:05.550,-0.096792,0.45788,7.493811,0.387952,-0.403536,-0.525579
2024-01-01 00:00:05.560,-0.415562,0.473993,7.13094,0.561761,-0.301956,-0.26128
2024-01-01 00:00:05.570,-0.304999,0.751274,6.986238,0.573253,-0.239223,-0.337971
2024-01-01 00:00:05.580,0.161423,0.499285,7.083021,0.577447,-0.233353,-0.276037
2024-01-01 00:00:05.590,0.65344,0.749817,7.549438,0.64798,-0.08773,-0.237782
2024-01-01 00:00:05.600,-0.341542,0.6135,8.048068,0.611911,-0.304358,-0.095247
2024-01-01 00:00:05.610,-0.617259,0.480903,9.106192,0.537582,-0.272252,-0.09364
2024-01-01 00:00:05.620,-0.845935,0.952533,9.983335,0.762232,-0.089402,0.258851
2024-01-01 00:00:05.630,-0.126648,0.960877,10.481502,0.556016,0.16308,0.017549
2024-01-01 00:00:05.640,0.793038,0.764365,10.948054,0.840576,0.139123,0.123127
2024-01-01 00:00:05.650,0.282772,0.525446,10.831399,0.587421,0.216894,0.091294
2024-01-01 00:00:05.660,0.155642,0.782541,11.855447,0.624259,0.261131,0.201484
2024-01-01 00:00:05.670,0.372556,0.548066,12.303079,1.025874,0.207018,0.397276
2024-01-01 00:00:05.680,0.735918,0.197255,12.885022,0.353314,0.286863,0.326741
2024-01-01 00:00:05.690,0.117383,0.551993,12.624928,0.539981,0.373483,0.379079
2024-01-01 00:00:05.700,0.70863,0.704501,13.095043,0.470178,0.302005,0.243994
2024-01-01 00:00:05.710,1.004175,0.04557,13.130498,0.449898,0.576625,0.436269
2024-01-01 00:00:05.720,0.323512,0.112895,12.342273,0.283431,0.327106,0.2192
2024-01-01 00:00:05.730,0.868988,0.178349,12.556872,0.274654,0.416763,0.253607
2024-01-01 00:00:05.740,1.023426,0.296858,12.001051,0.20568,0.529531,0.107245
2024-01-01 00:00:05.750,0.606338,0.390645,11.477044,0.137306,0.65984,0.177184
2024-01-01 00:00:05.760,0.899979,0.26515,10.792862,0.481552,0.543749,0.128598
2024-01-01 00:00:05.770,1.307947,0.050911,9.249751,0.058453,0.37757,-0.033291
2024-01-01 00:00:05.780,0.776934,0.091135,9.610998,-0.422913,0.328094,0.041928
2024-01-01 00:00:05.790,0.797207,-0.153729,9.136964,-0.07461,0.519212,0.041292
2024-01-01 00:00:05.800,0.119038,0.00851,9.050582,-0.107984,0.517056,-0.233049
2024-01-01 00:00:05.810,0.793065,-0.366464,8.146386,-0.332569,0.571547,-0.218039
2024-01-01 00:00:05.820,0.76679,0.002281,7.445302,-0.133396,0.455479,-0.43954
2024-01-01 00:00:05.830,0.740641,-0.264262,6.737666,-0.341737,0.563466,-0.2516
2024-01-01 00:00:05.840,0.827291,-0.187104,6.639014,-0.378863,0.202322,-0.43551
2024-01-01 00:00:05.850,0.70144,-0.528934,6.871106,-0.57207,0.356499,-0.3191
2024-01-01 00:00:05.860,0.040625,-0.550858,6.859311,-0.570302,0.407383,-0.163889
2024-01-01 00:00:05.870,0.705693,-0.409008,7.144607,-0.493332,0.502912,-0.492118
2024-01-01 00:00:05.880,0.649376,-0.684731,7.505841,-0.300488,0.319079,-0.170556
2024-01-01 00:00:05.890,-0.19307,-0.56214,7.220484,-0.796545,0.185542,-0.282138
2024-01-01 00:00:05.900,0.134099,-0.889056,7.575878,-0.491907,0.15121,-0.27943
2024-01-01 00:00:05.910,0.43756,-0.638989,8.361525,-0.672177,0.122133,-0.176833
2024-01-01 00:00:05.920,0.05527,-0.585174,8.601917,-0.868316,0.076751,-0.101632
2024-01-01 00:00:05.930,0.355634,-0.590002,9.432526,-0.973289,-0.013732,0.038814
2024-01-01 00:00:05.940,0.107238,-0.398928,9.831679,-0.792881,-0.154838,0.053441
2024-01-01 00:00:05.950,0.066349,-0.436786,10.911598,-0.596849,-0.124202,0.15346
2024-01-01 00:00:05.960,0.284301,-0.771421,11.687753,-0.494694,-0.156203,0.274634
2024-01-01 00:00:05.970,-0.42777,-0.968381,11.984672,-0.783809,-0.052118,0.191768
2024-01-01 00:00:05.980,-0.385985,-0.329826,12.130628,-0.593843,-0.287969,0.216656
2024-01-01 00:00:05.990,-0.13565,-0.433065,12.61128,-0.259383,-0.411038,0.375981
2024-01-01 00:00:06.000,-0.460629,-0.75314,12.847615,-0.524639,-0.376346,0.225619
2024-01-01 00:00:06.010,-0.515398,-0.06331,13.451571,-0.400813,-0.230159,0.530662
2024-01-01 00:00:06.020,-0.974751,-0.2618,13.772762,-0.577674,-0.383346,0.304216
2024-01-01 00:00:06.030,-0.527805,-0.237762,12.774275,-0.517449,-0.544483,0.332234
2024-01-01 00:00:06.040,0.054982,-0.533711,11.798209,-0.371441,-0.581582,0.446045
2024-01-01 00:00:06.050,-0.946679,-0.206721,12.280298,-0.299613,-0.481937,0.223265
2024-01-01 00:00:06.060,-0.690049,-0.327554,11.934756,-0.233804,-0.695572,0.197912
2024-01-01 00:00:06.070,-0.589636,-0.041289,10.651772,-0.293881,-0.627313,0.097704
2024-01-01 00:00:06.080,-0.947132,-0.180693,10.426402,-0.154647,-0.66911,0.020428
2024-01-01 00:00:06.090,-0.922967,0.218207,9.439673,-0.074796,-0.772144,-0.213041
2024-01-01 00:00:06.100,-0.689151,-0.171975,9.472299,0.104865,-0.75933,-0.109684
2024-01-01 00:00:06.110,-0.615735,0.000299,9.61569,0.006213,-0.575331,-0.063058
2024-01-01 00:00:06.120,-1.030207,0.211167,7.757454,0.113334,-0.463212,-0.195131
2024-01-01 00:00:06.130,-0.810279,0.490743,7.994577,0.467467,-0.487787,-0.344817
2024-01-01 00:00:06.140,-0.484494,0.49892,6.835884,0.111236,-0.504215,-0.290145
2024-01-01 00:00:06.150,-0.862284,0.680402,6.95915,0.244252,-0.278846,-0.288711
2024-01-01 00:00:06.160,-0.448339,0.428773,6.633811,0.610002,-0.361968,-0.453256
2024-01-01 00:00:06.170,-0.34562,0.439708,6.727078,0.485991,-0.40774,-0.42965
2024-01-01 00:00:06.180,-0.740535,0.47887,6.720234,0.513098,-0.498043,-0.354172
2024-01-01 00:00:06.190,-0.295209,0.603687,7.124712,0.535149,-0.446199,-0.318244
2024-01-01 00:00:06.200,-0.740243,0.648468,7.560296,0.482878,-0.04811,-0.187573
2024-01-01 00:00:06.210,-0.071882,0.673335,7.348154,0.430809,-0.41009,-0.25548
2024-01-01 00:00:06.220,-0.39913,0.843197,8.089348,0.755781,-0.184518,-0.353486
2024-01-01 00:00:06.230,-0.591339,0.678324,9.375863,0.461066,-0.030526,-0.113627
2024-01-01 00:00:06.240,0.286785,0.777792,9.454614,0.547656,0.027445,-0.005996
2024-01-01 00:00:06.250,-0.018312,0.662782,9.636102,0.665275,0.19616,-0.046622
2024-01-01 00:00:06.260,0.486744,0.783583,10.900188,0.738124,0.037597,0.068987
2024-01-01 00:00:06.270,0.631488,0.845336,11.11604,0.584169,0.015383,0.043409
2024-01-01 00:00:06.280,-0.090034,0.387627,12.074451,0.531748,0.364002,0.098393
2024-01-01 00:00:06.290,-0.053687,0.060308,10.973794,0.307578,0.25442,0.16076
2024-01-01 00:00:06.300,0.528743,0.676861,12.246495,0.635492,0.337718,0.253528
2024-01-01 00:00:06.310,0.047209,0.740559,12.896069,0.665439,0.35506,0.263749
2024-01-01 00:00:06.320,1.087238,0.517411,13.138847,0.366149,0.222496,0.561454
2024-01-01 00:00:06.330,0.992923,0.19341,12.821333,0.583109,0.54339,0.348282
2024-01-01 00:00:06.340,0.435839,0.241854,12.807728,0.460911,0.454579,0.264302
2024-01-01 00:00:06.350,0.875361,0.241739,12.762081,0.39202,0.393281,0.330145
2024-01-01 00:00:06.360,0.868057,0.406951,12.160614,0.258164,0.234717,0.299199
2024-01-01 00:00:06.370,0.528977,0.093834,11.827463,0.21366,0.482233,0.169007
2024-01-01 00:00:06.380,1.081739,0.143283,10.883135,0.148386,0.602826,0.216065
2024-01-01 00:00:06.390,0.604327,-0.037748,10.761705,-0.034368,0.673821,0.186327
2024-01-01 00:00:06.400,0.591565,-0.401338,9.381339,-0.310731,0.578082,-0.047283
2024-01-01 00:00:06.410,0.865606,0.22782,9.967208,0.047593,0.545909,-0.161272
2024-01-01 00:00:06.420,1.149191,-0.25904,9.112151,-0.09308,0.446816,-0.091006
2024-01-01 00:00:06.430,0.364572,-0.350513,8.295798,-0.30582,0.634151,-0.08721
2024-01-01 00:00:06.440,0.975251,0.155883,7.834436,-0.085622,0.442919,-0.36435
2024-01-01 00:00:06.450,0.555488,-0.393703,7.110905,-0.304962,0.748336,-0.190826
2024-01-01 00:00:06.460,1.186431,-0.54671,7.221605,-0.465388,0.317477,-0.410367
2024-01-01 00:00:06.470,0.460181,-0.34589,6.608974,-0.295608,0.427489,-0.351055
2024-01-01 00:00:06.480,0.84917,-0.444494,6.2207,-0.325383,0.451851,-0.537099
2024-01-01 00:00:06.490,0.436093,-0.447438,6.227258,-0.715929,0.530619,-0.319085
2024-01-01 00:00:06.500,1.195941,-0.538593,6.695896,-0.531034,0.524233,-0.435315
2024-01-01 00:00:06.510,0.578701,-0.596791,7.709617,-0.696034,0.295299,-0.157577
2024-01-01 00:00:06.520,0.250792,-0.307914,6.939755,-0.503782,0.263704,-0.177178
2024-01-01 00:00:06.530,0.214585,-0.944254,7.883793,-0.188373,0.324169,-0.023811
2024-01-01 00:00:06.540,-0.310145,-0.939121,8.511854,-0.541723,0.233838,-0.142291
2024-01-01 00:00:06.550,0.217725,-1.152742,8.989718,-0.810057,-0.062911,-0.260427
2024-01-01 00:00:06.560,-0.307351,-0.849491,9.560415,-0.514866,-0.015769,-0.09374
2024-01-01 00:00:06.570,-0.243738,-0.562265,10.946696,-0.302178,-0.237595,0.046785
2024-01-01 00:00:06.580,0.43817,-0.484618,10.529208,-0.569587,0.148591,0.252581
2024-01-01 00:00:06.590,-0.213492,-0.744454,11.324202,-0.353858,-0.260653,0.298419
2024-01-01 00:00:06.600,-0.160711,-0.529065,12.599438,-0.718806,-0.18409,0.453881
2024-01-01 00:00:06.610,-0.978087,-0.658143,11.872872,-0.583814,-0.468259,0.344268
2024-01-01 00:00:06.620,-1.005873,-0.41048,12.256537,-0.370203,-0.498501,0.226105
2024-01-01 00:00:06.630,-0.457715,-0.68547,12.128528,-0.627344,-0.197903,0.371494
2024-01-01 00:00:06.640,-0.383668,-0.622449,12.756716,-0.390107,-0.694099,0.291323
2024-01-01 00:00:06.650,-0.643287,-0.395969,12.751437,-0.418247,-0.560186,0.358724
2024-01-01 00:00:06.660,-0.615899,-0.597406,12.737859,-0.332471,-0.479461,0.336465
2024-01-01 00:00:06.670,-0.924832,-0.148593,12.758909,-0.314749,-0.538732,0.206966
2024-01-01 00:00:06.680,-1.044657,0.101516,11.803681,-0.244628,-0.383626,0.248749
2024-01-01 00:00:06.690,-0.858273,-0.328443,12.075918,0.040568,-0.640414,0.436723
2024-01-01 00:00:06.700,-0.700659,-0.634343,10.860631,-0.253027,-0.654631,0.196528
2024-01-01 00:00:06.710,-0.592952,-0.084599,9.516177,-0.071115,-0.550081,-0.111973
2024-01-01 00:00:06.720,-0.723465,-0.22973,9.69751,-0.131725,-0.524432,-0.091803
2024-01-01 00:00:06.730,-0.567111,-0.130571,9.387917,-0.122992,-0.539142,0.080139
2024-01-01 00:00:06.740,-1.203522,0.144677,8.1008,0.238022,-0.421486,-0.144814
2024-01-01 00:00:06.750,-0.743407,-0.064864,7.758831,0.342837,-0.544638,-0.277742
2024-01-01 00:00:06.760,-0.835718,0.02468,8.070833,0.187711,-0.366475,-0.288365
2024-01-01 00:00:06.770,-0.368404,0.333103,7.243343,0.03883,-0.375591,-0.241291
2024-01-01 00:00:06.780,0.102581,0.303616,7.012019,0.469976,-0.547513,-0.330162
2024-01-01 00:00:06.790,-0.433201,0.372725,6.344282,0.473874,-0.589919,-0.352532
2024-01-01 00:00:06.800,-0.669857,0.511156,6.712465,0.59403,-0.246283,-0.398571
2024-01-01 00:00:06.810,-0.649613,0.636478,7.231908,0.732797,-0.164233,-0.226594
2024-01-01 00:00:06.820,-0.116845,0.394541,7.230799,0.466815,-0.289222,-0.360761
2024-01-01 00:00:06.830,-0.22943,0.656802,7.74029,0.823884,-0.335211,-0.34294
2024-01-01 00:00:06.840,0.366425,0.944278,7.819562,0.772031,-0.122317,-0.335976
2024-01-01 00:00:06.850,-0.664781,0.339468,8.115708,0.785395,-0.282038,-0.107266
2024-01-01 00:00:06.860,0.47465,0.994529,9.170356,0.609906,-0.051732,-0.106574
2024-01-01 00:00:06.870,-0.337164,0.314744,9.804092,0.473067,-0.17306,0.058596
2024-01-01 00:00:06.880,0.022069,0.896681,10.111342,0.698439,0.102964,0.060505
2024-01-01 00:00:06.890,-0.415271,0.489392,11.047211,0.783459,0.103075,0.04456
2024-01-01 00:00:06.900,0.149863,0.774692,11.375072,0.526348,0.192958,0.267923
2024-01-01 00:00:06.910,-0.792468,0.588564,11.939552,0.515651,0.444756,0.25608
2024-01-01 00:00:06.920,0.710834,0.84385,12.398775,0.913022,0.476204,0.123996
2024-01-01 00:00:06.930,0.461042,0.376991,13.103115,1.02366,0.268945,0.251416
2024-01-01 00:00:06.940,0.098867,0.589798,13.644437,0.450767,0.380031,0.175365
2024-01-01 00:00:06.950,0.449914,0.767651,13.181358,0.302485,0.143056,0.16832
2024-01-01 00:00:06.960,0.421251,0.759396,12.788609,0.065368,0.374461,0.410485
2024-01-01 00:00:06.970,0.774809,0.22251,12.449511,0.343796,0.495277,0.407807
2024-01-01 00:00:06.980,1.427747,0.014737,12.730175,0.379566,0.584706,0.216224
2024-01-01 00:00:06.990,0.775113,0.274319,11.93401,0.333266,0.454814,0.226166
2024-01-01 00:00:07.000,1.189093,0.160711,11.630158,-0.016231,0.663497,0.227362
2024-01-01 00:00:07.010,1.21178,0.102139,10.395338,-0.236271,0.584159,0.117055
2024-01-01 00:00:07.020,1.03646,0.14582,10.569152,0.173371,0.560232,0.160885
2024-01-01 00:00:07.030,0.903985,-0.314399,9.485212,0.063521,0.713659,0.094531
2024-01-01 00:00:07.040,0.743086,-0.065074,9.381337,-0.063165,0.664581,-0.068094
2024-01-01 00:00:07.050,0.694577,-0.232181,8.891896,0.090196,0.483655,-0.004307
2024-01-01 00:00:07.060,1.343135,0.06793,8.053137,-0.187047,0.43247,-0.173378
2024-01-01 00:00:07.070,0.566698,-0.435851,7.607026,-0.234796,0.530633,-0.358064
2024-01-01 00:00:07.080,0.575172,-0.628196,7.194337,-0.376272,0.612844,-0.340274
2024-01-01 00:00:07.090,0.413524,-0.555739,6.170046,-0.26217,0.332751,-0.34888
2024-01-01 00:00:07.100,0.974521,-0.53678,6.149211,-0.454276,0.546018,-0.172491
2024-01-01 00:00:07.110,0.710926,-0.620756,7.022334,-0.57977,0.351689,-0.385448
2024-01-01 00:00:07.120,0.584207,-0.653355,6.588505,-0.768426,0.366374,-0.29368
2024-01-01 00:00:07.130,0.43225,-0.524994,7.264342,-0.359222,0.353083,-0.273173
2024-01-01 00:00:07.140,0.223309,-0.694504,7.185907,-0.668742,0.279519,-0.320961
2024-01-01 00:00:07.150,0.207814,-0.416308,6.916805,-0.687477,0.071371,-0.219605
2024-01-01 00:00:07.160,0.868381,-0.875243,8.619098,-0.931242,0.153574,-0.149172
2024-01-01 00:00:07.170,-0.02844,-0.505038,8.533492,-0.520615,0.179072,0.066262
2024-01-01 00:00:07.180,0.384026,-0.446784,9.622821,-0.638393,-0.223301,-0.120095
2024-01-01 00:00:07.190,0.511511,-0.713613,10.976776,-0.915698,-0.024919,-0.011077
2024-01-01 00:00:07.200,0.227303,-0.540627,10.601167,-0.972786,0.05639,0.075872
2024-01-01 00:00:07.210,-0.021223,-0.76925,11.349327,-0.571056,0.043154,0.371694
2024-01-01 00:00:07.220,-0.334992,-0.584928,11.713517,-0.688151,-0.269225,0.272926
2024-01-01 00:00:07.230,-0.409473,-0.771538,12.740414,-0.652637,-0.203467,0.248158
2024-01-01 00:00:07.240,-0.653559,-0.619498,12.705819,-0.385183,-0.230956,0.4136
2024-01-01 00:00:07.250,-0.545915,-0.513732,12.534186,-0.386591,-0.206049,0.45805
2024-01-01 00:00:07.260,-0.325905,-0.596314,12.384863,-0.423897,-0.453529,0.360162
2024-01-01 00:00:07.270,-1.030392,-0.593981,12.666254,-0.520499,-0.576452,0.187061
2024-01-01 00:00:07.280,-0.924212,-0.529581,12.416439,-0.101387,-0.636187,0.427693
2024-01-01 00:00:07.290,-0.808722,-0.312221,12.166684,-0.620561,-0.422961,0.185318
2024-01-01 00:00:07.300,-0.750366,-0.19316,11.450097,-0.341842,-0.586115,0.342735
2024-01-01 00:00:07.310,-0.769069,-0.08132,12.077982,-0.100587,-0.628112,0.03768
2024-01-01 00:00:07.320,-0.718015,-0.385952,11.356667,0.041194,-0.653873,0.197871
2024-01-01 00:00:07.330,-1.267852,-0.096172,9.722582,-0.180431,-0.530495,0.027213
2024-01-01 00:00:07.340,-0.580358,-0.107255,8.712172,-0.302329,-0.460293,-0.217816
2024-01-01 00:00:07.350,-0.737088,-0.092222,8.921548,0.146996,-0.598847,-0.094718
2024-01-01 00:00:07.360,-0.840296,0.082608,8.43172,0.312466,-0.607099,-0.140576
2024-01-01 00:00:07.370,-0.756294,-0.184973,8.235359,0.284989,-0.288702,-0.323632
2024-01-01 00:00:07.380,-0.891822,0.165697,7.505693,0.359402,-0.43308,-0.124695
2024-01-01 00:00:07.390,-0.400396,0.350986,7.390427,0.019774,-0.287264,-0.222806
2024-01-01 00:00:07.400,-1.215641,0.774842,6.736994,0.370542,-0.440711,-0.22116
2024-01-01 00:00:07.410,-1.18105,0.472154,7.069133,0.387965,-0.686812,-0.388389
2024-01-01 00:00:07.420,-0.997509,0.864045,6.50126,0.680714,-0.445353,-0.396561
2024-01-01 00:00:07.430,-0.516151,0.407061,6.760819,0.280445,-0.503832,-0.532515
2024-01-01 00:00:07.440,-0.187242,0.588328,7.277627,0.570726,-0.215272,-0.489181
2024-01-01 00:00:07.450,-0.934105,0.48455,6.97474,0.568174,-0.354419,-0.264706
2024-01-01 00:00:07.460,0.32162,0.467942,7.256984,0.624052,-0.345931,-0.18802
2024-01-01 00:00:07.470,-0.388776,0.488091,8.504885,0.749142,-0.300411,-0.13293
2024-01-01 00:00:07.480,-0.586776,0.778468,8.421706,0.832588,-0.39207,-0.14098
2024-01-01 00:00:07.490,-0.213156,0.696289,9.892175,0.828076,-0.103913,0.032114
2024-01-01 00:00:07.500,0.154771,0.678117,11.259999,0.868389,-0.054877,0.218388
2024-01-01 00:00:07.510,-0.384713,1.01498,10.866664,0.684709,-0.110012,0.143239
2024-01-01 00:00:07.520,0.134948,0.827243,11.231152,0.843846,0.150831,0.210961
2024-01-01 00:00:07.530,0.477396,0.999563,11.535767,0.682697,0.368049,0.350428
2024-01-01 00:00:07.540,0.291346,0.711721,12.464366,0.730096,0.214393,0.11228
2024-01-01 00:00:07.550,0.191837,0.70519,12.301717,0.593228,0.252041,0.31215
2024-01-01 00:00:07.560,0.538898,0.595385,12.904926,0.699405,0.349613,0.243485
2024-01-01 00:00:07.570,0.371651,0.514418,12.577424,0.619713,0.453152,0.448778
2024-01-01 00:00:07.580,0.558312,0.391607,12.586459,0.686977,0.356212,0.327064
2024-01-01 00:00:07.590,0.557019,0.175752,13.142261,0.59988,0.547254,0.258577
2024-01-01 00:00:07.600,0.813233,0.786838,12.080912,0.10158,0.544626,0.265416
2024-01-01 00:00:07.610,1.174295,0.485235,12.892083,0.236003,0.397391,0.200784
2024-01-01 00:00:07.620,0.296797,0.555089,11.499913,0.187239,0.499086,0.112778
2024-01-01 00:00:07.630,0.547353,0.216971,11.701412,0.059297,0.429013,0.267247
2024-01-01 00:00:07.640,1.003952,0.603928,10.850578,0.171718,0.610164,0.326356
2024-01-01 00:00:07.650,0.440891,-0.090022,10.518956,0.06539,0.435229,-0.018429
2024-01-01 00:00:07.660,0.998674,-0.103631,9.133404,-0.260903,0.673381,-0.081072
2024-01-01 00:00:07.670,0.821543,-0.057204,8.934205,-0.168862,0.730457,-0.114185
2024-01-01 00:00:07.680,0.495092,-0.45884,8.51995,-0.253906,0.558269,-0.14697
2024-01-01 00:00:07.690,0.348033,-0.206583,7.32715,-0.307315,0.462689,-0.393058
2024-01-01 00:00:07.700,0.728163,0.124602,7.269802,-0.253966,0.306719,-0.171196
2024-01-01 00:00:07.710,0.797246,-0.36125,6.132471,-0.197139,0.497564,-0.273406
2024-01-01 00:00:07.720,0.704491,-0.341182,7.393314,-0.501938,0.544046,-0.49116
2024-01-01 00:00:07.730,0.598155,-0.29879,7.179818,-0.601932,0.404067,-0.338999
2024-01-01 00:00:07.740,0.277824,-0.710146,7.056161,-0.762075,0.371909,-0.349575
2024-01-01 00:00:07.750,0.345075,-0.316078,7.081973,-0.519564,0.388273,-0.557643
2024-01-01 00:00:07.760,0.942869,-0.566714,6.540587,-0.452326,0.309625,-0.250979
2024-01-01 00:00:07.770,-0.042235,-0.293528,7.186555,-0.694416,0.403893,-0.170969
2024-01-01 00:00:07.780,0.165895,-0.482202,8.650087,-0.519863,0.119288,-0.253524
2024-01-01 00:00:07.790,0.619679,-0.7305,8.295053,-0.528607,0.074516,-0.191379
2024-01-01 00:00:07.800,0.538444,-0.465703,9.395161,-0.635571,-0.063943,-0.120104
2024-01-01 00:00:07.810,-0.060196,-0.724539,9.803477,-0.792168,0.020111,0.049144
2024-01-01 00:00:07.820,-0.583039,-0.652331,10.076117,-0.63301,0.094451,0.012413
2024-01-01 00:00:07.830,0.872155,-0.620101,11.296464,-0.595947,0.038382,0.182746
2024-01-01 00:00:07.840,0.009584,-0.697772,11.638866,-0.591716,-0.196592,0.081098
2024-01-01 00:00:07.850,-0.108189,-0.510998,12.02848,-0.737766,-0.213873,0.236978
2024-01-01 00:00:07.860,-0.618124,-0.841715,13.40712,-0.38971,-0.308548,0.397625
2024-01-01 00:00:07.870,-0.790304,-0.75998,13.048327,-0.381873,-0.423004,0.36722
2024-01-01 00:00:07.880,-0.347641,-0.456945,12.233083,-0.650918,-0.230419,0.4761
2024-01-01 00:00:07.890,-0.402706,-0.628535,13.177577,-0.575465,-0.395833,0.475203
2024-01-01 00:00:07.900,-0.752346,0.086727,12.685304,-0.197055,-0.397614,0.425897
2024-01-01 00:00:07.910,-1.248685,-0.420009,12.860212,-0.294558,-0.583569,0.252173
2024-01-01 00:00:07.920,-0.905762,-0.455729,12.71838,-0.235024,-0.721896,0.175689
2024-01-01 00:00:07.930,-0.451232,-0.312769,11.762624,-0.077576,-0.398841,0.093375
2024-01-01 00:00:07.940,-0.674466,0.149033,11.242166,-0.080962,-0.354073,0.355315
2024-01-01 00:00:07.950,-0.841254,-0.142225,10.567522,-0.225844,-0.722145,0.239666
2024-01-01 00:00:07.960,-0.833535,-0.211733,9.415426,-0.236779,-0.710751,0.047687
2024-01-01 00:00:07.970,-0.610671,0.161917,9.679277,0.136742,-0.34005,-0.213037
2024-01-01 00:00:07.980,-0.907004,0.165122,9.10456,0.164279,-0.486885,-0.069277
2024-01-01 00:00:07.990,-0.838804,-0.086102,7.608881,0.159886,-0.524764,-0.333985
2024-01-01 00:00:08.000,-0.950178,0.70387,8.014731,0.370665,-0.296945,-0.404198
2024-01-01 00:00:08.010,-0.691577,0.664173,6.724787,0.137565,-0.390391,-0.315742
2024-01-01 00:00:08.020,-0.985127,0.339845,6.98652,0.148441,-0.449465,-0.107425
2024-01-01 00:00:08.030,-1.108608,0.676968,6.258709,0.526513,-0.266661,-0.276885
2024-01-01 00:00:08.040,-0.987318,0.369907,6.770939,0.464514,-0.57171,-0.454726
2024-01-01 00:00:08.050,0.021964,0.631983,6.511476,0.529146,-0.299241,-0.383176
2024-01-01 00:00:08.060,-0.446811,0.023145,6.496008,0.391301,-0.257607,-0.27158
2024-01-01 00:00:08.070,-0.444635,0.717444,7.565879,0.533964,-0.252614,-0.179361
2024-01-01 00:00:08.080,0.084952,0.582198,6.429188,0.724678,-0.293798,-0.202201
2024-01-01 00:00:08.090,-0.448139,0.691678,7.703044,0.582827,-0.043173,-0.168479
2024-01-01 00:00:08.100,-0.350433,0.843147,8.349891,0.450063,-0.173242,-0.171303
2024-01-01 00:00:08.110,-0.582622,0.634118,8.943901,0.554368,-0.06044,-0.131074
2024-01-01 00:00:08.120,-0.115604,0.657064,9.330957,0.747245,-0.074974,0.052968
2024-01-01 00:00:08.130,-0.056218,0.728336,10.167453,0.576358,-0.049948,-0.045934
2024-01-01 00:00:08.140,-0.112474,0.2792,10.611595,0.80225,-0.031394,0.085096
2024-01-01 00:00:08.150,-0.615208,0.529363,11.589092,0.661714,0.224842,0.217393
2024-01-01 00:00:08.160,0.303233,0.978423,12.647069,0.430213,0.243869,0.186046
2024-01-01 00:00:08.170,0.938255,0.517968,11.98231,0.646809,0.062248,0.173679
2024-01-01 00:00:08.180,-0.239032,0.68715,13.077752,0.585449,0.251338,0.460287
2024-01-01 00:00:08.190,0.388802,0.719785,12.042751,0.391367,0.38421,0.39687
2024-01-01 00:00:08.200,0.358664,0.269659,12.767399,0.012735,0.38816,0.227538
2024-01-01 00:00:08.210,0.673382,0.309426,13.071394,0.607171,0.263349,0.461497
2024-01-01 00:00:08.220,0.86713,0.021661,13.172642,0.468733,0.332932,0.314308
2024-01-01 00:00:08.230,0.5582,0.587739,12.771104,0.494455,0.403232,0.125422
2024-01-01 00:00:08.240,0.461449,-0.091924,12.223261,0.521737,0.513906,0.170468
2024-01-01 00:00:08.250,0.677053,0.555109,11.922153,0.348034,0.810679,0.150285
2024-01-01 00:00:08.260,0.67595,0.2659,11.323343,0.205006,0.611403,0.255594
2024-01-01 00:00:08.270,0.647335,-0.030107,10.133876,0.040866,0.559347,0.062807
2024-01-01 00:00:08.280,1.163553,-0.039726,9.947385,-0.025896,0.489215,-0.014688
2024-01-01 00:00:08.290,0.935327,-0.269062,9.719114,-0.275423,0.602032,-0.106215
2024-01-01 00:00:08.300,1.399399,-0.237885,7.913224,-0.235819,0.66446,-0.022245
2024-01-01 00:00:08.310,0.911725,-0.353104,8.334403,-0.130288,0.515507,-0.199141
2024-01-01 00:00:08.320,0.669298,-0.611228,7.810022,-0.039574,0.702977,-0.212044
2024-01-01 00:00:08.330,0.747882,-0.446229,7.367677,-0.544413,0.559819,-0.37023
2024-01-01 00:00:08.340,0.27829,-0.133529,6.794311,-0.574693,0.673256,-0.250082
2024-01-01 00:00:08.350,0.958644,-0.324134,6.058842,-0.362917,0.505263,-0.307745
2024-01-01 00:00:08.360,1.045259,-0.441141,6.645548,-0.363079,0.309125,-0.37924
2024-01-01 00:00:08.370,0.376735,-0.329683,6.383698,-0.775881,0.271653,-0.317638
2024-01-01 00:00:08.380,0.010819,-0.896968,6.546059,-0.561792,0.396284,-0.257782
2024-01-01 00:00:08.390,0.142667,-0.839604,7.809606,-0.360229,0.046294,-0.248269
2024-01-01 00:00:08.400,0.723212,-0.489023,8.134419,-0.594712,0.123445,-0.438693
2024-01-01 00:00:08.410,0.738859,-0.855001,8.327876,-0.514379,-0.081392,-0.240151
2024-01-01 00:00:08.420,0.424873,-0.98792,8.987722,-0.583607,0.33679,-0.026275
2024-01-01 00:00:08.430,0.563821,-0.469865,9.468873,-0.928909,-0.186066,-0.149122
2024-01-01 00:00:08.440,-0.286309,-0.446475,10.492488,-0.767757,0.021898,-0.025973
2024-01-01 00:00:08.450,0.455424,-0.382555,11.165081,-0.508505,0.062412,0.274655
2024-01-01 00:00:08.460,0.047642,-0.714679,11.610016,-0.712458,0.033694,0.153304
2024-01-01 00:00:08.470,0.125752,-0.83975,12.088349,-0.85125,-0.132956,0.0517
2024-01-01 00:00:08.480,-0.800332,-0.483203,11.958026,-0.86542,-0.195529,0.213809
2024-01-01 00:00:08.490,-0.114282,-0.468579,12.177107,-0.739863,-0.134373,0.133947
2024-01-01 00:00:08.500,-0.540465,-0.383509,12.173569,-0.437958,-0.281561,0.327497
2024-01-01 00:00:08.510,-0.287402,-0.675137,12.493834,-0.237007,-0.407065,0.244132
2024-01-01 00:00:08.520,-0.922799,-0.141486,12.993946,-0.650955,-0.378174,0.080913
2024-01-01 00:00:08.530,0.229582,-0.018944,12.735325,-0.346019,-0.617538,0.436203
2024-01-01 00:00:08.540,-0.693113,-0.596316,12.294183,-0.33016,-0.519523,0.158637
2024-01-01 00:00:08.550,-0.753291,-0.374355,12.520645,-0.511382,-0.618786,0.311368
2024-01-01 00:00:08.560,-0.961585,-0.123194,11.683991,-0.007533,-0.701184,0.259415
2024-01-01 00:00:08.570,-0.521035,0.023568,10.818507,0.131311,-0.493316,0.047884
2024-01-01 00:00:08.580,-0.719413,-0.434892,10.689761,0.095178,-0.506866,0.155451
2024-01-01 00:00:08.590,-0.913264,0.04538,9.680565,-0.076614,-0.471101,0.186008
2024-01-01 00:00:08.600,-0.457503,-0.002999,10.213604,0.154188,-0.709738,-0.071783
2024-01-01 00:00:08.610,-0.827419,0.087382,8.845371,0.134584,-0.632052,-0.172898
2024-01-01 00:00:08.620,-0.716997,0.041381,8.205743,0.04296,-0.432031,-0.112068
2024-01-01 00:00:08.630,-0.311459,0.310941,7.456517,0.31623,-0.685209,-0.391876
2024-01-01 00:00:08.640,-1.299864,0.609887,7.092785,0.430094,-0.541507,-0.280165
2024-01-01 00:00:08.650,-0.165887,0.060641,6.958052,0.529033,-0.588315,-0.315892
2024-01-01 00:00:08.660,-0.714353,0.634469,7.194265,0.396782,-0.507225,-0.265691
2024-01-01 00:00:08.670,-0.539929,0.516728,6.985606,0.330311,-0.343944,-0.349219
2024-01-01 00:00:08.680,-0.170549,0.253976,6.943653,0.418264,-0.252221,-0.534899
2024-01-01 00:00:08.690,-0.424305,0.089633,6.434376,0.654373,-0.322394,-0.250474
2024-01-01 00:00:08.700,-0.069399,0.674099,7.715868,0.464492,-0.209686,-0.333322
2024-01-01 00:00:08.710,0.267775,0.800932,7.817183,0.690927,-0.192592,-0.120777
2024-01-01 00:00:08.720,0.691778,1.035691,8.730768,0.485136,0.068486,-0.075912
2024-01-01 00:00:08.730,0.098852,0.639101,8.333472,0.83956,-0.107089,-0.192193
2024-01-01 00:00:08.740,0.380558,0.453634,9.619692,0.34921,0.235802,0.152908
2024-01-01 00:00:08.750,-0.012584,0.862112,10.214037,0.585549,-0.027299,0.049875
2024-01-01 00:00:08.760,0.806452,0.897081,10.117273,0.431859,-0.114772,0.080836
2024-01-01 00:00:08.770,0.302515,0.557356,11.15823,0.720543,0.063333,0.169532
2024-01-01 00:00:08.780,0.44154,0.654351,11.946689,0.43134,0.13464,0.196657
2024-01-01 00:00:08.790,0.081944,0.682567,12.733389,0.723341,0.216869,0.323841
2024-01-01 00:00:08.800,0.67776,0.478094,12.909722,0.519898,0.309853,0.356052
2024-01-01 00:00:08.810,0.15616,0.568824,11.950634,0.421231,0.426063,0.489968
2024-01-01 00:00:08.820,0.88639,0.45597,12.822382,0.617792,0.389416,0.278985
2024-01-01 00:00:08.830,0.758973,0.47709,12.743868,0.439558,0.154624,0.402408
2024-01-01 00:00:08.840,0.519266,0.6063,13.098469,0.617142,0.434349,0.409745
2024-01-01 00:00:08.850,0.89869,0.208298,12.681929,0.163991,0.616802,0.452797
2024-01-01 00:00:08.860,0.527032,0.537642,12.640207,0.01466,0.289491,0.30471
2024-01-01 00:00:08.870,0.769846,0.096702,12.056266,0.128009,0.412799,0.107264
2024-01-01 00:00:08.880,0.902101,0.390933,11.915853,0.057146,0.811917,0.197058
2024-01-01 00:00:08.890,0.651161,-0.10653,10.009811,0.090167,0.59604,0.036556
2024-01-01 00:00:08.900,0.345992,-0.165336,9.749669,-0.070725,0.655397,0.085363
2024-01-01 00:00:08.910,0.631254,-0.290923,8.916051,0.060514,0.561421,-0.109623
2024-01-01 00:00:08.920,1.13873,0.095745,8.509908,-0.254163,0.417062,-0.083138
2024-01-01 00:00:08.930,0.914638,-0.110062,8.464111,-0.029166,0.547689,-0.149957
2024-01-01 00:00:08.940,0.935895,-0.24739,8.09508,-0.294277,0.454989,-0.114874
2024-01-01 00:00:08.950,0.632412,-0.229339,7.465461,-0.404209,0.52472,-0.216753
2024-01-01 00:00:08.960,0.898202,-0.508042,7.579695,-0.123388,0.485136,-0.147546
2024-01-01 00:00:08.970,0.566977,-0.389555,8.033555,-0.820866,0.352901,-0.349707
2024-01-01 00:00:08.980,0.053766,-0.417125,6.630382,-0.431446,0.51027,-0.400613
2024-01-01 00:00:08.990,0.513225,-0.67364,7.619831,-0.557378,0.261696,-0.355507
2024-01-01 00:00:09.000,-0.293475,-0.630431,5.961875,-0.497178,0.257897,-0.431641
2024-01-01 00:00:09.010,0.577478,-0.392628,7.22116,-0.366103,0.229171,-0.482012
2024-01-01 00:00:09.020,0.572545,-0.490396,7.17833,-0.338708,0.417363,-0.363541
2024-01-01 00:00:09.030,0.544445,-0.459332,8.031972,-0.595737,0.309253,-0.271266
2024-01-01 00:00:09.040,0.408305,-0.629936,8.976108,-0.565213,0.194991,-0.075181
2024-01-01 00:00:09.050,0.566924,-0.880885,9.896152,-0.693521,0.049984,-0.020255
2024-01-01 00:00:09.060,-0.272895,-0.798305,10.50162,-0.52864,0.070502,0.052723
2024-01-01 00:00:09.070,-0.550358,-0.901905,10.627539,-0.638669,-0.174711,0.178442
2024-01-01 00:00:09.080,0.077424,-0.464035,11.207429,-0.668758,-0.092619,-0.006828
2024-01-01 00:00:09.090,-0.416277,-0.608457,11.771302,-0.220089,-0.318884,0.287262
2024-01-01 00:00:09.100,0.364083,-0.472999,12.816633,-0.477494,-0.27733,0.095778
2024-01-01 00:00:09.110,-0.572131,-0.834465,12.866832,-0.805279,-0.368207,0.228823
2024-01-01 00:00:09.120,-0.086001,-0.840159,12.438241,-0.62596,-0.522611,0.410084
2024-01-01 00:00:09.130,-0.680869,-0.710951,13.919256,-0.600523,-0.269163,0.402749
2024-01-01 00:00:09.140,-0.696763,-0.213377,13.389616,-0.407223,-0.401519,0.199888
2024-01-01 00:00:09.150,-0.786013,-0.478119,12.82897,-0.469114,-0.451995,0.322979
2024-01-01 00:00:09.160,-0.781839,-0.576641,12.271882,-0.274378,-0.628022,0.330361
2024-01-01 00:00:09.170,-0.826986,-0.62222,11.92843,-0.091321,-0.461828,0.392884
2024-01-01 00:00:09.180,-0.613437,0.055079,11.868749,-0.349411,-0.48855,0.106349
2024-01-01 00:00:09.190,-0.924792,-0.348721,11.587592,0.155234,-0.66503,0.116326
2024-01-01 00:00:09.200,-0.840302,-0.396338,11.17778,-0.026231,-0.593359,-0.009255
2024-01-01 00:00:09.210,-0.312996,-0.130788,9.838777,-0.166138,-0.643309,0.128944
2024-01-01 00:00:09.220,-1.032876,0.312797,8.844283,0.126391,-0.722472,0.077935
2024-01-01 00:00:09.230,-0.48449,0.139967,9.238816,0.245505,-0.724394,-0.191098
2024-01-01 00:00:09.240,-0.24256,-0.005346,8.224294,0.299659,-0.425484,-0.215888
2024-01-01 00:00:09.250,-0.843209,0.441191,8.163205,0.274035,-0.331847,-0.348601
2024-01-01 00:00:09.260,-0.572517,0.142106,7.589054,0.249835,-0.661108,-0.340501
2024-01-01 00:00:09.270,-0.541356,0.247047,6.954548,0.165954,-0.359467,-0.167878
2024-01-01 00:00:09.280,-0.130616,0.328493,7.186107,0.199732,-0.465694,-0.472071
2024-01-01 00:00:09.290,-0.644736,0.019115,6.928294,0.595072,-0.317215,-0.324225
2024-01-01 00:00:09.300,0.12665,0.405273,6.766682,0.206789,-0.655267,-0.193909
2024-01-01 00:00:09.310,-0.615664,0.286106,6.620698,0.500389,-0.346101,-0.474879
2024-01-01 00:00:09.320,-0.604426,0.626391,7.477187,0.247578,-0.197166,-0.487457
2024-01-01 00:00:09.330,-0.173071,0.87739,7.062078,0.135504,0.014731,-0.302229
2024-01-01 00:00:09.340,-0.758221,0.241157,8.23401,0.618831,-0.103362,-0.241144
2024-01-01 00:00:09.350,-0.488058,0.817389,7.794701,0.318465,-0.000271,-0.114298
2024-01-01 00:00:09.360,-0.440651,1.106658,9.167031,0.771213,-0.22563,-0.18164
2024-01-01 00:00:09.370,-0.266208,0.497297,9.756303,0.736189,-0.072238,0.002557
2024-01-01 00:00:09.380,-0.118681,0.90629,10.678163,0.777204,0.138557,-0.058892
2024-01-01 00:00:09.390,0.262646,0.517787,10.406988,0.367559,-0.005418,0.054288
2024-01-01 00:00:09.400,0.073536,0.696839,11.558472,0.686287,0.1379,0.181948
2024-01-01 00:00:09.410,-0.706151,0.636654,11.998987,0.624887,-0.068224,0.084059
2024-01-01 00:00:09.420,-0.248722,0.720918,12.32711,0.471343,0.283579,0.222799
2024-01-01 00:00:09.430,-0.316929,0.848841,12.402809,0.309985,0.378319,0.142737
2024-01-01 00:00:09.440,0.582771,0.482683,12.943365,0.560347,0.528021,0.456774
2024-01-01 00:00:09.450,0.782581,0.701181,12.744633,0.466603,0.37305,0.36007
2024-01-01 00:00:09.460,0.964574,0.878748,13.458396,0.346531,0.570586,0.395872
2024-01-01 00:00:09.470,1.050606,0.188048,12.22222,0.318001,0.459664,0.22282
2024-01-01 00:00:09.480,1.047934,0.485891,12.395056,0.56372,0.351443,0.361088
2024-01-01 00:00:09.490,0.824797,-0.054286,11.674633,0.165192,0.301831,0.219546
2024-01-01 00:00:09.500,0.515735,-0.109289,11.819077,0.258695,0.512322,0.100608
2024-01-01 00:00:09.510,0.988876,-0.033103,10.707749,-0.041227,0.603627,0.359137
2024-01-01 00:00:09.520,0.799377,-0.013423,10.448974,0.139551,0.548529,-0.042186
2024-01-01 00:00:09.530,0.828095,0.267985,9.628846,-0.135258,0.366189,0.035492
2024-01-01 00:00:09.540,1.012851,-0.068057,9.545002,-0.071695,0.650322,-0.193042
2024-01-01 00:00:09.550,0.372269,-0.288744,9.085669,0.104999,0.429525,-0.104474
2024-01-01 00:00:09.560,0.680681,-0.58076,8.213086,-0.131825,0.532115,-0.156794
2024-01-01 00:00:09.570,0.542477,-0.139475,7.129502,-0.146066,0.587588,-0.418988
2024-01-01 00:00:09.580,1.310136,-0.071904,6.849819,-0.298098,0.493502,-0.078952
2024-01-01 00:00:09.590,0.406969,-0.510778,6.581905,-0.456369,0.434791,-0.512457
2024-01-01 00:00:09.600,0.425342,-0.217154,7.15831,-0.612662,0.443306,-0.310087
2024-01-01 00:00:09.610,0.378049,-0.61954,6.397558,-0.535449,0.424123,-0.227139
2024-01-01 00:00:09.620,0.646021,-0.358859,6.520122,-0.401743,0.313967,-0.204426
2024-01-01 00:00:09.630,0.644852,-0.512139,7.259188,-0.621161,0.262448,-0.186368
2024-01-01 00:00:09.640,0.172323,-0.494125,7.340749,-0.860349,0.329181,-0.307773
2024-01-01 00:00:09.650,0.129187,-1.114068,7.667656,-0.812127,0.059937,-0.134901
2024-01-01 00:00:09.660,0.757679,-0.494267,8.252819,-0.689484,0.285465,-0.13216
2024-01-01 00:00:09.670,0.312263,-0.839919,9.416138,-0.372572,0.075782,-0.132131
2024-01-01 00:00:09.680,0.0151,-0.936826,10.092936,-0.557582,-0.159751,0.058024
2024-01-01 00:00:09.690,-0.053536,-0.514772,10.265718,-0.708265,0.065289,0.052206
2024-01-01 00:00:09.700,-0.149111,-0.646839,10.661044,-0.704796,0.059799,-0.09825
2024-01-01 00:00:09.710,0.519383,-1.012221,11.001464,-0.674554,-0.057513,0.303015
2024-01-01 00:00:09.720,-0.933471,-0.546568,11.525205,-0.488931,-0.159943,0.082969
2024-01-01 00:00:09.730,-0.654518,-0.16165,12.715766,-0.805325,-0.26566,0.181874
2024-01-01 00:00:09.740,-0.923795,-0.360519,12.75617,-0.49535,-0.457397,0.320229
2024-01-01 00:00:09.750,0.34814,-0.623881,12.633226,-0.465743,-0.338563,0.261006
2024-01-01 00:00:09.760,-0.51944,-0.625761,13.525259,-0.449696,-0.248527,0.265099
2024-01-01 00:00:09.770,-0.798684,-0.561602,12.449335,-0.255061,-0.453227,0.200453
2024-01-01 00:00:09.780,-0.670112,-0.694581,12.271575,-0.094817,-0.325728,0.295787
2024-01-01 00:00:09.790,0.056544,-0.529739,12.718462,-0.391054,-0.674124,0.297794
2024-01-01 00:00:09.800,-0.775342,-0.127626,12.059025,-0.146501,-0.568953,0.254689
2024-01-01 00:00:09.810,-0.523205,-0.42136,11.746111,0.105864,-0.605998,0.330123
2024-01-01 00:00:09.820,-0.667186,-0.162657,11.608434,-0.213302,-0.389252,0.167671
2024-01-01 00:00:09.830,-0.673083,-0.257896,10.203683,0.166859,-0.449296,0.206496
2024-01-01 00:00:09.840,-0.551907,-0.045079,9.223334,0.265247,-0.426289,0.050511
2024-01-01 00:00:09.850,-0.93692,0.653106,9.40448,0.037844,-0.413772,-0.106235
2024-01-01 00:00:09.860,-0.974105,0.075011,9.000495,0.396774,-0.404613,-0.030635
2024-01-01 00:00:09.870,-1.045334,0.114469,8.283362,0.295748,-0.645065,-0.193711
2024-01-01 00:00:09.880,-0.741452,0.113211,7.564557,0.39448,-0.725768,-0.240329
2024-01-01 00:00:09.890,-0.850406,0.331345,7.2297,0.326224,-0.332736,-0.337356
2024-01-01 00:00:09.900,-0.749057,0.637285,6.319303,0.283896,-0.538898,-0.345386
2024-01-01 00:00:09.910,-1.213723,0.336861,7.420842,0.611581,-0.385537,-0.458896
2024-01-01 00:00:09.920,-0.504119,0.377239,6.769996,0.528855,-0.32012,-0.418408
2024-01-01 00:00:09.930,0.247633,0.786792,6.914866,0.788719,-0.364462,-0.473784
2024-01-01 00:00:09.940,-0.87939,0.514162,7.697497,0.472687,-0.40045,-0.274041
2024-01-01 00:00:09.950,-0.860724,0.760059,7.719737,0.555076,-0.326081,-0.38486
2024-01-01 00:00:09.960,-0.272744,0.82744,8.106217,0.732278,-0.200056,-0.083463
2024-01-01 00:00:09.970,-0.348283,0.498805,8.333428,0.695734,-0.26094,-0.225517
2024-01-01 00:00:09.980,-0.818412,0.837655,8.821657,0.418292,-0.056885,-0.123288
2024-01-01 00:00:09.990,0.306053,0.747361,8.981822,0.892229,-0.068223,-0.029932
2024-01-01 00:00:10.000,0.3214,0.568053,10.03634,0.585837,-0.034056,-0.206566
2024-01-01 00:00:10.010,-0.250193,0.449089,10.306204,0.674199,0.186071,0.03821
2024-01-01 00:00:10.020,0.10233,0.481606,11.560826,0.613408,0.102389,0.237173
2024-01-01 00:00:10.030,0.667233,0.531666,11.394646,0.385625,0.270389,0.151235
2024-01-01 00:00:10.040,0.365636,0.625508,12.113084,0.682783,0.447006,0.373335
2024-01-01 00:00:10.050,0.888818,0.903742,12.517622,0.575999,0.2796,0.315222
2024-01-01 00:00:10.060,0.813533,0.340802,12.741766,0.369974,0.335265,0.350247
2024-01-01 00:00:10.070,0.706169,0.706898,13.946402,0.679668,0.317741,0.321283
2024-01-01 00:00:10.080,0.443639,0.721331,13.322209,0.295027,0.396548,0.209514
2024-01-01 00:00:10.090,0.502522,0.341427,11.689052,0.40818,0.78398,0.505958
2024-01-01 00:00:10.100,0.795318,0.322507,12.129343,-0.002069,0.196292,0.553815
2024-01-01 00:00:10.110,0.941231,0.547096,11.575917,0.117396,0.285241,0.232889
2024-01-01 00:00:10.120,0.301315,0.579261,11.701236,0.422461,0.397965,0.258385
2024-01-01 00:00:10.130,0.562662,0.184278,10.778147,0.133643,0.430231,0.073963
2024-01-01 00:00:10.140,0.980059,0.126866,11.170069,0.180138,0.554787,0.135602
2024-01-01 00:00:10.150,1.237906,0.407719,10.045741,0.13811,0.668762,0.031132
2024-01-01 00:00:10.160,1.336775,-0.167109,8.765962,0.143555,0.495863,-0.06815
2024-01-01 00:00:10.170,1.036594,-0.014448,8.409208,-0.352168,0.824677,-0.088927
2024-01-01 00:00:10.180,1.157756,-0.341058,7.767695,-0.106071,0.552486,-0.204399
2024-01-01 00:00:10.190,0.875627,0.102632,7.531903,-0.437688,0.618098,-0.405803
2024-01-01 00:00:10.200,0.615007,-0.212901,7.593304,-0.155121,0.305234,-0.298845
2024-01-01 00:00:10.210,0.584471,-0.415897,6.344892,-0.006592,0.522469,-0.386428
2024-01-01 00:00:10.220,0.816519,-0.412955,6.140544,-0.257475,0.418041,-0.276783
2024-01-01 00:00:10.230,0.772323,-0.814208,7.205523,-0.353084,0.335934,-0.390041
2024-01-01 00:00:10.240,0.612139,-0.413791,6.369661,-0.556138,0.338538,-0.260336
2024-01-01 00:00:10.250,0.453069,-0.490505,7.124972,-0.562616,0.439615,-0.398198
2024-01-01 00:00:10.260,0.877194,-0.529284,7.548216,-0.341082,0.485602,-0.220991
2024-01-01 00:00:10.270,0.642961,-0.685997,8.16548,-0.62339,0.016107,-0.463715
2024-01-01 00:00:10.280,0.037272,-0.493357,8.581008,-0.923923,0.198497,-0.119363
2024-01-01 00:00:10.290,0.222146,-0.603306,8.941584,-0.648425,0.156456,-0.166675
2024-01-01 00:00:10.300,0.610663,-0.529277,9.557842,-0.573977,0.109715,-0.137556
2024-01-01 00:00:10.310,0.118429,-0.752332,10.034432,-0.551264,0.004186,-0.094981
2024-01-01 00:00:10.320,-0.809318,-1.124658,10.464418,-0.796142,-0.009102,0.01183
2024-01-01 00:00:10.330,-0.168408,-0.692517,11.120065,-0.653233,-0.127278,0.047678
2024-01-01 00:00:10.340,-0.439236,-0.930669,11.833786,-0.729063,-0.234436,0.16051
2024-01-01 00:00:10.350,0.249937,-0.85349,12.029218,-0.534093,-0.033266,0.219305
2024-01-01 00:00:10.360,-0.849967,-0.735546,12.712869,-0.685781,-0.20442,0.280757
2024-01-01 00:00:10.370,-0.053369,-0.829964,12.809841,-0.496323,-0.328334,0.416158
2024-01-01 00:00:10.380,-0.582575,-0.678448,12.032681,-0.468208,-0.27856,0.416081
2024-01-01 00:00:10.390,-0.139603,-0.677798,12.737271,-0.32149,-0.161143,0.395901
2024-01-01 00:00:10.400,-0.945849,-0.333876,12.850309,-0.572997,-0.374279,0.334706
2024-01-01 00:00:10.410,-0.441675,-0.499993,12.562415,-0.32254,-0.492759,0.383835
2024-01-01 00:00:10.420,-0.37503,-0.444768,11.887601,-0.204511,-0.551391,0.104938
2024-01-01 00:00:10.430,-0.564675,-0.294101,11.455111,-0.13057,-0.482425,0.198041
2024-01-01 00:00:10.440,-0.547219,0.113376,10.785382,-0.152271,-0.356047,0.022243
2024-01-01 00:00:10.450,-0.675438,0.16793,9.650659,-0.221801,-0.592476,0.15166
2024-01-01 00:00:10.460,-0.686246,-0.078484,10.905569,-0.032409,-0.586599,0.148338
2024-01-01 00:00:10.470,-0.817803,-0.007066,10.13099,-0.278317,-0.552325,0.032147
2024-01-01 00:00:10.480,-1.002428,0.149296,8.714723,-0.042768,-0.551831,-0.328279
2024-01-01 00:00:10.490,-0.515458,0.362501,8.273424,0.074609,-0.608674,-0.165649
2024-01-01 00:00:10.500,-1.45142,0.168003,8.046556,0.08626,-0.539527,-0.153174
2024-01-01 00:00:10.510,-0.478377,0.016886,7.136105,0.421232,-0.602471,-0.295814
2024-01-01 00:00:10.520,-0.966188,0.263634,6.76934,0.20582,-0.385998,-0.262918
2024-01-01 00:00:10.530,-0.213194,0.222309,7.027616,0.410104,-0.570295,-0.215465
2024-01-01 00:00:10.540,-1.022384,0.736142,6.025171,0.505864,-0.314935,-0.363981
2024-01-01 00:00:10.550,-0.731157,0.542853,6.742979,0.603151,-0.259146,-0.404406
2024-01-01 00:00:10.560,-0.054288,0.344944,7.319536,0.53241,-0.437822,-0.429536
2024-01-01 00:00:10.570,-0.268748,0.482718,7.188965,0.561567,-0.563916,-0.405281
2024-01-01 00:00:10.580,-0.113552,0.819349,7.956704,0.767178,0.033717,-0.200055
2024-01-01 00:00:10.590,-0.429687,0.662681,8.315601,0.728487,-0.265971,-0.151712
2024-01-01 00:00:10.600,-0.290961,0.813132,8.317962,0.798697,-0.135352,-0.129638
2024-01-01 00:00:10.610,-0.302627,0.880207,9.202342,0.589553,-0.077725,-0.174271
2024-01-01 00:00:10.620,0.238685,1.028984,9.515164,0.679775,-0.151152,-0.12382
2024-01-01 00:00:10.630,-0.498154,0.581589,10.198245,0.79434,0.148615,0.033866
2024-01-01 00:00:10.640,-0.532767,0.525796,10.044199,0.534961,0.053648,0.160226
2024-01-01 00:00:10.650,-0.081487,0.998317,11.048852,0.736387,0.332833,0.162128
2024-01-01 00:00:10.660,0.103277,0.660678,11.381108,0.61861,0.222049,0.262387
2024-01-01 00:00:10.670,0.506185,0.780561,11.942803,0.771669,7.4e-05,0.224976
2024-01-01 00:00:10.680,0.364864,1.076578,13.050719,0.606597,0.135458,0.264931
2024-01-01 00:00:10.690,0.277797,0.600341,13.050938,0.543678,0.437962,0.372827
2024-01-01 00:00:10.700,0.081096,0.51029,13.394381,0.46355,0.447106,0.405123
2024-01-01 00:00:10.710,0.684733,0.806061,12.912405,0.528516,0.374397,0.138755
2024-01-01 00:00:10.720,0.820735,0.295451,12.441068,0.453598,0.205341,0.468936
2024-01-01 00:00:10.730,0.454603,0.306448,11.934726,0.134805,0.526046,0.392079
2024-01-01 00:00:10.740,0.583862,0.419161,12.912322,0.409826,0.546692,0.336828
2024-01-01 00:00:10.750,0.798766,0.161135,11.136451,0.208944,0.682783,0.108697
2024-01-01 00:00:10.760,0.299463,0.240606,11.045908,0.065539,0.594782,0.218287
2024-01-01 00:00:10.770,0.971065,-0.019732,10.015287,-0.100364,0.608604,-0.08226
2024-01-01 00:00:10.780,0.867312,0.016892,9.672122,-0.037273,0.644937,-0.029204
2024-01-01 00:00:10.790,0.581677,-0.001895,8.960946,0.261978,0.66038,-0.074787
2024-01-01 00:00:10.800,0.760033,-0.3989,8.910369,0.083012,0.46473,-0.042456
2024-01-01 00:00:10.810,0.455991,-0.44745,7.992601,-0.255742,0.592109,-0.206843
2024-01-01 00:00:10.820,0.582806,-0.753144,8.012504,-0.347301,0.451479,-0.490275
2024-01-01 00:00:10.830,0.866593,-0.079007,7.144891,-0.272909,0.514089,-0.286289
2024-01-01 00:00:10.840,0.714404,-0.441564,6.619572,-0.63527,0.214984,-0.314198
2024-01-01 00:00:10.850,0.812181,-0.537932,6.737038,-0.3008,0.228516,-0.460419
2024-01-01 00:00:10.860,0.307177,-0.149347,6.736924,-0.577931,0.386202,-0.210255
2024-01-01 00:00:10.870,0.4615,-0.742713,7.61053,-0.58511,0.329326,-0.339714
2024-01-01 00:00:10.880,0.919129,-1.095194,6.570576,-0.625461,0.204529,-0.237981
2024-01-01 00:00:10.890,0.979171,-0.700447,7.563094,-0.488181,0.218897,-0.189346
2024-01-01 00:00:10.900,0.131319,-0.850444,8.019388,-0.693191,0.443031,-0.186477
2024-01-01 00:00:10.910,0.083954,-0.43186,8.519758,-0.871221,0.214702,-0.226468
2024-01-01 00:00:10.920,0.00579,-0.695317,8.365459,-0.749336,-0.057837,0.042718
2024-01-01 00:00:10.930,0.201149,-0.60874,8.833806,-0.767322,0.026253,-0.11252
2024-01-01 00:00:10.940,-0.375565,-0.669203,10.512463,-0.834453,-0.043138,0.106223
2024-01-01 00:00:10.950,0.176336,-0.487875,9.91509,-0.561863,0.102985,0.472774
2024-01-01 00:00:10.960,0.035095,-0.709459,11.366066,-0.792755,-0.233116,0.186749
2024-01-01 00:00:10.970,-0.531366,-0.596573,11.265721,-0.688025,-0.373,0.232756
2024-01-01 00:00:10.980,-0.503325,-0.824347,12.096673,-0.706928,-0.287282,0.416226
2024-01-01 00:00:10.990,-0.287579,-0.595424,12.46057,-0.539352,-0.388198,0.348539
2024-01-01 00:00:11.000,-0.545269,-0.8101,12.988443,-0.773828,-0.472639,0.219534
2024-01-01 00:00:11.010,-0.24464,-0.567033,12.887248,-0.428007,-0.319734,0.324014
2024-01-01 00:00:11.020,-0.54557,-0.572344,12.442836,-0.472646,-0.672518,0.180104
2024-01-01 00:00:11.030,-0.320404,-0.718717,13.015145,-0.488851,-0.42845,0.416985
2024-01-01 00:00:11.040,-0.686533,-0.385369,12.635047,-0.211275,-0.383016,0.298368
2024-01-01 00:00:11.050,-0.7371,-0.260744,12.417434,-0.375072,-0.564586,0.124482
2024-01-01 00:00:11.060,-0.434933,-0.093445,11.872616,0.002152,-0.460015,0.114758
2024-01-01 00:00:11.070,-1.35093,-0.181609,11.083504,-0.025286,-0.615927,0.031217
2024-01-01 00:00:11.080,-0.561262,-0.222737,10.463701,-0.166267,-0.497667,0.079005
2024-01-01 00:00:11.090,-1.129835,-0.234109,9.578832,0.052876,-0.654509,-0.132483
2024-01-01 00:00:11.100,-0.579604,-0.081251,8.629046,0.080492,-0.527801,-0.092549
2024-01-01 00:00:11.110,-0.456423,0.328195,8.683507,-0.120468,-0.553213,-0.198153
2024-01-01 00:00:11.120,-0.723445,0.549858,7.546285,0.151239,-0.565672,-0.1119
2024-01-01 00:00:11.130,-0.884302,0.435871,7.318652,0.31925,-0.565517,-0.271097
2024-01-01 00:00:11.140,-0.87662,0.031384,7.045939,0.380139,-0.435352,-0.215753
2024-01-01 00:00:11.150,-0.690042,0.572441,6.329766,0.349359,-0.520537,-0.336754
2024-01-01 00:00:11.160,-0.717378,0.510346,6.182475,0.38623,-0.447525,-0.358187
2024-01-01 00:00:11.170,-0.990987,0.181217,6.67409,0.44451,-0.486674,-0.324964
2024-01-01 00:00:11.180,-0.521892,0.83889,6.150188,0.442612,-0.368176,-0.264006
2024-01-01 00:00:11.190,-0.283382,0.898444,7.224229,0.335713,-0.434065,-0.328576
2024-01-01 00:00:11.200,-0.049527,0.603605,7.73409,0.540506,-0.372156,-0.170655
2024-01-01 00:00:11.210,-0.449374,0.7474,7.776869,0.675781,-0.190737,-0.029226
2024-01-01 00:00:11.220,-0.353349,0.698505,7.942164,0.85765,-0.145885,-0.327259
2024-01-01 00:00:11.230,0.675657,0.8577,8.619012,0.532641,-0.146669,-0.060922
2024-01-01 00:00:11.240,-0.064963,0.507819,9.758924,0.971945,-0.106226,-0.249673
2024-01-01 00:00:11.250,0.219074,0.587513,10.526893,0.99583,0.172411,-0.048768
2024-01-01 00:00:11.260,0.137819,0.425636,10.35334,0.631113,-0.075428,0.002008
2024-01-01 00:00:11.270,0.448679,0.723494,11.149306,0.483174,-0.097454,0.174921
2024-01-01 00:00:11.280,0.052782,0.689502,11.12138,0.483693,0.149566,0.08389
2024-01-01 00:00:11.290,0.501129,0.542071,12.178282,0.545996,0.262314,0.190608
2024-01-01 00:00:11.300,0.871067,0.869606,12.135433,0.524862,0.234039,0.202739
2024-01-01 00:00:11.310,0.806212,0.413061,12.665536,0.325714,0.27352,0.228568
2024-01-01 00:00:11.320,0.983222,0.309006,13.120586,0.558701,0.143937,0.300457
2024-01-01 00:00:11.330,0.648591,0.452954,12.699507,0.388257,0.07866,0.316446
2024-01-01 00:00:11.340,0.832283,0.6909,12.422352,0.189962,0.639839,0.52768
2024-01-01 00:00:11.350,0.636776,0.228127,12.646188,0.643707,0.544554,0.312045
2024-01-01 00:00:11.360,0.58897,0.004968,11.863008,0.18816,0.507675,0.302249
2024-01-01 00:00:11.370,0.977858,-0.024925,11.384653,0.255085,0.466685,0.063553
2024-01-01 00:00:11.380,0.58553,-0.19876,11.069379,-0.087478,0.397705,0.168852
2024-01-01 00:00:11.390,0.887255,0.161614,10.530191,0.099534,0.553759,0.22426
2024-01-01 00:00:11.400,0.623828,-0.086763,10.071891,-0.384067,0.65992,0.044055
2024-01-01 00:00:11.410,0.618629,0.046176,8.705237,-0.092321,0.727937,-0.074886
2024-01-01 00:00:11.420,0.636366,-0.059607,8.796578,-0.268857,0.601995,-0.131628
2024-01-01 00:00:11.430,0.546634,-0.474146,8.2858,-0.062267,0.661718,-0.062025
2024-01-01 00:00:11.440,0.382885,-0.370953,7.313423,-0.35002,0.477977,-0.18564
2024-01-01 00:00:11.450,0.378566,-0.043485,7.250659,-0.115519,0.497698,-0.168256
2024-01-01 00:00:11.460,1.126209,-0.234045,6.757794,-0.480503,0.454801,-0.349097
2024-01-01 00:00:11.470,0.896737,-0.397614,6.675904,-0.376847,0.413956,-0.48002
2024-01-01 00:00:11.480,0.966102,-0.19478,6.167598,-0.376708,0.434657,-0.429613
2024-01-01 00:00:11.490,0.934751,-0.318355,6.493284,-0.429934,0.432809,-0.255815
2024-01-01 00:00:11.500,0.239693,-0.49112,6.84018,-0.349317,0.411735,-0.344077
2024-01-01 00:00:11.510,0.955833,-0.611903,6.820488,-0.41193,0.445713,-0.310561
2024-01-01 00:00:11.520,0.330527,-0.28912,8.827998,-0.579214,0.242363,-0.422059
2024-01-01 00:00:11.530,0.364946,-0.320485,7.680627,-0.677233,0.09765,-0.093871
2024-01-01 00:00:11.540,0.321495,-0.814837,8.578242,-0.543463,0.322145,-0.062096
2024-01-01 00:00:11.550,-0.076719,-0.593673,9.568255,-0.816018,0.170789,0.065013
2024-01-01 00:00:11.560,-0.358718,-0.697627,10.115923,-0.648681,-0.024613,0.050551
2024-01-01 00:00:11.570,-0.662014,-0.83064,10.936292,-0.736809,-0.064458,0.013195
2024-01-01 00:00:11.580,-0.851202,-0.908964,11.096234,-0.717318,-0.321986,0.088281
2024-01-01 00:00:11.590,-0.072964,-0.583477,11.569187,-0.568143,-0.331908,0.295976
2024-01-01 00:00:11.600,-0.820528,-0.498936,12.742364,-0.773381,-0.300637,0.246594
2024-01-01 00:00:11.610,-0.70835,-0.791616,12.2666,-0.656169,-0.122849,0.138064
2024-01-01 00:00:11.620,-0.777909,-0.514512,14.011373,-0.265164,-0.410408,0.293775
2024-01-01 00:00:11.630,-0.442438,-0.691562,12.87046,-0.624848,-0.481282,0.413705
2024-01-01 00:00:11.640,-1.005926,-0.469882,13.132205,-0.30525,-0.408464,0.403714
2024-01-01 00:00:11.650,-1.176539,-0.210716,12.60853,-0.547707,-0.382835,0.416383
2024-01-01 00:00:11.660,-0.637644,-0.265004,12.503099,-0.038956,-0.390389,0.264715
2024-01-01 00:00:11.670,-0.577802,-0.04303,12.280306,-0.360881,-0.506287,0.177447
2024-01-01 00:00:11.680,-0.745787,-0.305935,11.657336,-0.277305,-0.658552,0.219035
2024-01-01 00:00:11.690,-0.761015,-0.396276,11.637709,-0.012076,-0.42296,0.151336
2024-01-01 00:00:11.700,-0.954322,-0.130764,10.939515,0.280203,-0.642627,-0.027268
2024-01-01 00:00:11.710,-1.050035,-0.574272,10.752248,0.058411,-0.492752,0.157071
2024-01-01 00:00:11.720,-1.220548,0.397869,9.960717,-0.068832,-0.432407,0.008484
2024-01-01 00:00:11.730,-0.857057,0.2492,9.476079,0.10192,-0.400041,-0.067524
2024-01-01 00:00:11.740,-0.794644,0.025643,8.856369,0.155058,-0.47429,-0.104347
2024-01-01 00:00:11.750,-0.997028,0.105474,7.732875,0.321128,-0.436469,-0.286578
2024-01-01 00:00:11.760,-0.494411,0.268201,7.201887,0.242026,-0.519704,-0.27959
2024-01-01 00:00:11.770,-0.718308,0.147321,6.565725,0.342106,-0.319277,-0.040761
2024-01-01 00:00:11.780,-0.633437,0.365255,6.589113,0.442891,-0.434219,-0.224741
2024-01-01 00:00:11.790,-0.748751,0.599428,6.976884,0.432671,-0.483406,-0.593791
2024-01-01 00:00:11.800,-0.448108,0.269139,5.806746,0.631035,-0.50135,-0.424216
2024-01-01 00:00:11.810,-0.451888,0.797078,6.878032,0.663693,-0.281423,-0.332334
2024-01-01 00:00:11.820,-0.174756,0.705573,7.228605,0.255864,-0.207366,-0.434024
2024-01-01 00:00:11.830,-0.525149,0.895457,7.713897,0.404213,-0.425589,-0.243753
2024-01-01 00:00:11.840,-0.723589,0.653873,7.764658,0.901192,0.024164,-0.229838
2024-01-01 00:00:11.850,-0.026318,0.315012,7.519286,0.632355,-0.116173,-0.176664
2024-01-01 00:00:11.860,0.195817,0.839109,9.191104,0.626308,0.025072,-0.220533
2024-01-01 00:00:11.870,0.091311,0.698565,10.475876,0.48269,-0.030936,-0.021823
2024-01-01 00:00:11.880,0.276013,0.726265,9.940987,0.549827,-0.056427,0.060243
2024-01-01 00:00:11.890,0.189188,0.589244,10.142818,0.533149,0.135588,0.08065
2024-01-01 00:00:11.900,0.146427,0.846918,11.466596,0.559484,0.116403,0.226886
2024-01-01 00:00:11.910,-0.134563,0.678506,11.3981,0.849236,0.182109,0.175023
2024-01-01 00:00:11.920,0.213898,0.576928,13.047818,0.68726,0.436833,0.327234
2024-01-01 00:00:11.930,0.070243,1.074036,12.383279,0.62107,0.553438,0.325288
2024-01-01 00:00:11.940,0.303146,0.386082,12.602584,0.634108,0.28554,0.348747
2024-01-01 00:00:11.950,0.423116,0.47746,13.017267,0.494285,0.492929,0.22424
2024-01-01 00:00:11.960,1.003755,0.442735,12.602636,0.312225,0.347404,0.328012
2024-01-01 00:00:11.970,0.195656,0.626379,13.000411,0.340009,0.482128,0.411724
2024-01-01 00:00:11.980,0.923433,0.544387,12.749179,0.276832,0.215637,0.510749
2024-01-01 00:00:11.990,0.921509,0.321696,11.80726,0.144857,0.506351,0.142491
2024-01-01 00:00:12.000,1.069855,0.147195,11.347551,0.168794,0.387989,0.011624
2024-01-01 00:00:12.010,0.773223,0.306673,10.271552,0.297619,0.29629,-0.082277
2024-01-01 00:00:12.020,1.165541,0.245174,9.887112,-0.024354,0.592467,0.100124
2024-01-01 00:00:12.030,0.47164,0.167966,9.959809,-0.084351,0.5124,-0.08548
2024-01-01 00:00:12.040,0.679902,0.269993,9.265041,-0.220297,0.489345,-0.140552
2024-01-01 00:00:12.050,0.268278,0.192356,8.967602,-0.178607,0.641372,-0.159968
2024-01-01 00:00:12.060,0.60773,-0.11259,7.522063,-0.413977,0.75782,-0.204674
2024-01-01 00:00:12.070,0.596108,-0.316743,7.968511,-0.371304,0.541093,-0.250034
2024-01-01 00:00:12.080,1.108982,-0.157703,7.20985,-0.316891,0.583835,-0.177118
2024-01-01 00:00:12.090,0.612709,-0.286046,6.402332,-0.353263,0.73538,-0.433885
2024-01-01 00:00:12.100,0.963189,-0.689852,7.000234,-0.367181,0.364199,-0.389311
2024-01-01 00:00:12.110,0.524495,-0.691987,6.411088,-0.515675,0.363035,-0.390693
2024-01-01 00:00:12.120,0.439563,-0.473568,6.374847,-0.209146,0.535217,-0.194489
2024-01-01 00:00:12.130,0.729608,-0.749462,6.718324,-0.568106,0.326749,-0.174487
2024-01-01 00:00:12.140,0.187675,-0.735218,7.551352,-0.768936,0.256159,-0.24923
2024-01-01 00:00:12.150,0.610317,-0.776114,8.584589,-0.719827,0.418884,-0.408298
2024-01-01 00:00:12.160,-0.152714,-0.631951,8.559943,-0.291399,0.182009,-0.152555
2024-01-01 00:00:12.170,0.239655,-0.733244,9.018302,-0.777247,-0.002872,-0.053469
2024-01-01 00:00:12.180,0.354216,-0.930767,10.608235,-0.840887,0.181862,-0.104421
2024-01-01 00:00:12.190,-0.410085,-0.802668,9.103721,-0.34061,-0.116899,-0.006773
2024-01-01 00:00:12.200,0.271236,-0.495666,11.377503,-0.502147,-0.049483,0.082635
2024-01-01 00:00:12.210,-0.280545,-0.569854,11.318759,-0.55013,-0.061683,0.181235
2024-01-01 00:00:12.220,-0.289406,-0.447065,11.997107,-0.390024,-0.335927,0.052888
2024-01-01 00:00:12.230,-0.585538,-0.605425,11.955017,-0.531768,-0.430484,0.377973
2024-01-01 00:00:12.240,-0.197755,-0.391953,12.529302,-0.48224,-0.433471,0.405918
2024-01-01 00:00:12.250,-0.499763,0.039745,13.225261,-0.588873,-0.387035,0.42039
2024-01-01 00:00:12.260,-0.486213,-0.842263,13.251292,-0.29615,-0.521456,0.363777
2024-01-01 00:00:12.270,-0.260195,-0.095651,12.523794,-0.444141,-0.49779,0.139798
2024-01-01 00:00:12.280,-0.875415,-0.414212,12.646224,-0.197013,-0.305005,0.286129
2024-01-01 00:00:12.290,-0.818866,-0.590762,12.734062,-0.288324,-0.286076,0.315683
2024-01-01 00:00:12.300,-0.449203,-0.561301,12.173576,-0.274912,-0.535895,0.255578
2024-01-01 00:00:12.310,-1.11843,-0.213349,12.067044,0.041094,-0.493042,0.161589
2024-01-01 00:00:12.320,-0.297494,-0.173744,10.975857,-0.206575,-0.563869,0.483635
2024-01-01 00:00:12.330,-0.648107,0.036744,10.054003,-0.203544,-0.434452,-0.009045
2024-01-01 00:00:12.340,-1.110753,0.022112,9.466019,0.066377,-0.677508,-0.112918
2024-01-01 00:00:12.350,-1.016175,-0.580722,8.954025,0.14374,-0.602406,0.003109
2024-01-01 00:00:12.360,-0.992191,0.304361,8.676556,0.193876,-0.365514,-0.196085
2024-01-01 00:00:12.370,-1.170111,0.21194,7.766568,0.411556,-0.440972,-0.271269
2024-01-01 00:00:12.380,-0.267209,0.491522,8.048101,-0.002132,-0.604026,-0.305679
2024-01-01 00:00:12.390,-0.582557,0.471657,7.318542,0.471837,-0.236126,-0.358361
2024-01-01 00:00:12.400,-0.562794,0.604508,7.232099,0.285468,-0.221484,-0.300582
2024-01-01 00:00:12.410,-0.269442,0.51571,6.021877,0.44727,-0.439395,-0.290116
2024-01-01 00:00:12.420,-0.639636,0.623718,6.496528,0.323261,-0.309437,-0.351128
2024-01-01 00:00:12.430,-0.540013,0.647193,6.944233,0.429388,-0.252055,-0.204823
2024-01-01 00:00:12.440,-0.889067,0.763487,6.82032,0.772668,-0.453775,-0.354734
2024-01-01 00:00:12.450,-0.00572,0.527882,7.448387,0.65985,-0.358234,-0.367974
2024-01-01 00:00:12.460,-0.20541,0.724127,7.636199,0.630861,-0.43821,-0.219796
2024-01-01 00:00:12.470,-0.188881,0.53819,8.907515,0.915165,-0.175939,-0.147429
2024-01-01 00:00:12.480,0.097663,0.782895,9.60767,0.789543,-0.102922,-0.086776
2024-01-01 00:00:12.490,-0.035533,0.981567,9.963632,0.281814,-0.064873,-0.150767
2024-01-01 00:00:12.500,0.269869,0.719788,10.398356,0.504,-0.209931,0.066543
2024-01-01 00:00:12.510,0.909718,0.631057,11.305794,0.501972,0.073456,0.130327
2024-01-01 00:00:12.520,0.547286,0.727017,10.591154,0.917089,-0.05144,0.269105
2024-01-01 00:00:12.530,-0.308508,0.689494,12.114012,0.856579,0.105197,0.263563
2024-01-01 00:00:12.540,0.438186,0.676038,12.307557,0.383781,0.218129,0.342326
2024-01-01 00:00:12.550,1.12801,0.602612,12.717648,0.496926,0.367191,0.505759
2024-01-01 00:00:12.560,-0.006889,1.051404,12.519819,0.466597,0.508516,0.478584
2024-01-01 00:00:12.570,0.765226,0.686547,12.689231,0.533546,0.340644,0.305133
2024-01-01 00:00:12.580,0.530627,0.56607,13.118152,0.418855,0.41788,0.34658
2024-01-01 00:00:12.590,0.628437,0.613181,13.342091,0.632995,0.614884,0.361339
2024-01-01 00:00:12.600,0.965002,0.256897,12.857555,0.376557,0.497874,0.196324
2024-01-01 00:00:12.610,0.445225,0.190838,11.676464,0.687175,0.776603,0.369314
2024-01-01 00:00:12.620,0.951119,-0.10223,11.73567,0.393252,0.584793,-0.079103
2024-01-01 00:00:12.630,0.736101,0.056872,11.24375,-0.101371,0.790889,0.105442
2024-01-01 00:00:12.640,1.150763,0.228821,10.269922,0.222522,0.564199,-0.126855
2024-01-01 00:00:12.650,1.131154,0.229513,9.763353,-0.128411,0.53118,-0.052099
2024-01-01 00:00:12.660,0.573222,0.043281,8.821933,0.170321,0.568846,0.008006
2024-01-01 00:00:12.670,0.775394,-0.178789,8.758164,-0.148681,0.343939,-0.274429
2024-01-01 00:00:12.680,0.751528,-0.0466,7.54303,0.054139,0.595926,-0.362908
2024-01-01 00:00:12.690,0.835614,-0.057321,7.385971,-0.263637,0.218909,-0.181084
2024-01-01 00:00:12.700,0.564097,-0.538386,7.69157,-0.059936,0.569196,-0.331793
2024-01-01 00:00:12.710,0.412896,-0.173455,7.007052,-0.456662,0.7795,-0.313554
2024-01-01 00:00:12.720,1.114262,-0.464947,6.658557,-0.372615,0.443801,-0.424272
2024-01-01 00:00:12.730,0.556115,-0.273031,6.622699,-0.3781,0.463317,-0.15983
2024-01-01 00:00:12.740,0.250857,-0.264264,6.861296,-0.347587,0.217266,-0.378901
2024-01-01 00:00:12.750,0.181234,-0.439994,7.194296,-0.658821,0.370877,-0.304232
2024-01-01 00:00:12.760,0.642763,-0.903646,6.963766,-0.67845,0.197853,-0.357819
2024-01-01 00:00:12.770,0.548004,-0.582563,7.470046,-0.310386,0.292354,-0.313483
2024-01-01 00:00:12.780,0.495698,-0.325729,8.51348,-0.729282,0.102738,-0.276391
2024-01-01 00:00:12.790,0.231518,-0.771755,9.081394,-0.483376,0.199747,-0.173427
2024-01-01 00:00:12.800,0.859344,-0.779605,9.183924,-0.554986,0.103834,-0.078693
2024-01-01 00:00:12.810,0.251643,-0.617299,9.558811,-0.761051,-0.127454,-0.087655
2024-01-01 00:00:12.820,0.172191,-0.731173,10.46611,-0.889199,-0.044647,0.209893
2024-01-01 00:00:12.830,-0.451664,-0.828291,11.62552,-0.744273,0.064725,0.132319
2024-01-01 00:00:12.840,-0.37973,-0.44502,11.347773,-0.449913,-0.204041,0.172656
2024-01-01 00:00:12.850,-0.270405,-0.563472,12.172125,-0.433717,-0.14166,0.109321
2024-01-01 00:00:12.860,-1.124903,-0.352767,12.228315,-0.588268,-0.367724,0.398664
2024-01-01 00:00:12.870,-0.235308,-0.660841,12.688943,-0.568736,-0.358887,0.292244
2024-01-01 00:00:12.880,-0.295751,-0.63809,13.310709,-0.607851,-0.310618,0.394834
2024-01-01 00:00:12.890,-0.757769,-0.665853,12.549986,-0.445732,-0.315038,0.504764
2024-01-01 00:00:12.900,-0.696808,-0.443735,13.242455,-0.222996,-0.450598,0.3477
2024-01-01 00:00:12.910,-0.431918,-0.499363,12.47009,-0.438913,-0.322021,0.293133
2024-01-01 00:00:12.920,-0.860961,-0.320551,11.989249,-0.42613,-0.237755,0.255601
2024-01-01 00:00:12.930,-0.76412,-0.058677,11.34922,-0.224629,-0.603858,0.278611
2024-01-01 00:00:12.940,-0.89716,-0.164218,10.943302,-0.661019,-0.600167,0.154214
2024-01-01 00:00:12.950,-0.460447,-0.186132,10.738309,-0.193204,-0.633946,0.104956
2024-01-01 00:00:12.960,-0.666391,0.376275,10.047027,0.140632,-0.549518,0.010107
2024-01-01 00:00:12.970,-0.812746,0.270214,9.260078,-0.064441,-0.458992,-0.011888
2024-01-01 00:00:12.980,-0.63182,0.010254,9.392192,0.274287,-0.665181,0.001125
2024-01-01 00:00:12.990,-0.757581,0.330439,8.227919,0.188309,-0.352001,-0.306622
2024-01-01 00:00:13.000,-0.490928,0.338526,7.936693,0.202455,-0.612019,-0.216957
2024-01-01 00:00:13.010,-0.771717,0.117177,7.347005,0.174404,-0.418474,-0.390239
2024-01-01 00:00:13.020,-0.475159,0.788546,7.833891,0.275675,-0.63964,-0.283701
2024-01-01 00:00:13.030,-0.859091,0.372874,6.626111,0.629745,-0.465012,-0.339634
2024-01-01 00:00:13.040,-0.689353,0.658952,6.443636,0.677087,-0.422123,-0.341368
2024-01-01 00:00:13.050,-0.026766,0.036503,6.394377,0.617561,-0.415173,-0.222926
2024-01-01 00:00:13.060,-0.438374,0.512144,7.128301,0.301,-0.355014,-0.28851
2024-01-01 00:00:13.070,-0.49043,0.690698,7.936997,0.536501,-0.389446,-0.23948
2024-01-01 00:00:13.080,-0.196777,0.426823,7.189341,0.856975,-0.307666,-0.408964
2024-01-01 00:00:13.090,0.29887,0.91861,8.465227,0.647829,-0.052388,-0.355903
2024-01-01 00:00:13.100,-0.648347,0.554625,8.586777,0.67131,0.016657,0.045895
2024-01-01 00:00:13.110,0.018977,0.80914,9.021117,0.774154,-0.154957,-0.057201
2024-01-01 00:00:13.120,-0.349895,0.55363,10.754886,0.562826,0.162789,-0.050795
2024-01-01 00:00:13.130,-0.315551,0.980134,10.894274,0.671175,0.155287,0.122109
2024-01-01 00:00:13.140,0.070644,0.85848,10.903602,0.366607,0.165944,0.038448
2024-01-01 00:00:13.150,0.584775,0.762626,11.255492,0.692363,0.15779,0.243172
2024-01-01 00:00:13.160,0.541545,0.351901,11.798182,0.334333,-0.136595,0.373867
2024-01-01 00:00:13.170,0.112995,1.09741,12.919786,0.521131,0.145772,0.351691
2024-01-01 00:00:13.180,0.633095,0.532396,12.853049,0.484452,0.440839,0.316195
2024-01-01 00:00:13.190,0.382474,0.446191,12.427041,0.67734,0.420176,0.463875
2024-01-01 00:00:13.200,1.255617,0.421517,12.749722,0.666113,0.451935,0.32276
2024-01-01 00:00:13.210,0.76869,0.370668,11.844688,0.383773,0.249609,0.544758
2024-01-01 00:00:13.220,0.62411,0.292936,12.116616,0.581721,0.389055,0.381998
2024-01-01 00:00:13.230,0.624023,0.366367,12.364306,0.261942,0.511346,0.409126
2024-01-01 00:00:13.240,0.928822,0.070242,11.905592,0.306583,0.462086,0.393651
2024-01-01 00:00:13.250,1.089271,0.341433,11.330893,0.183876,0.573891,0.190426
2024-01-01 00:00:13.260,1.019266,0.716493,10.744199,0.239791,0.441498,-0.05825
2024-01-01 00:00:13.270,0.548896,-0.121452,10.480449,-0.104631,0.776876,0.106367
2024-01-01 00:00:13.280,0.919756,-0.228977,9.877483,0.023422,0.712426,-0.078883
2024-01-01 00:00:13.290,0.647808,-0.080646,9.374606,-0.118694,0.569045,-0.143143
2024-01-01 00:00:13.300,0.69688,-0.295942,8.21743,-0.073319,0.487694,-0.225514
2024-01-01 00:00:13.310,0.698743,-0.083829,8.079573,-0.22061,0.69078,-0.216123
2024-01-01 00:00:13.320,0.845006,-0.038766,7.789384,-0.323079,0.383663,-0.242166
2024-01-01 00:00:13.330,0.938016,-0.549804,7.012343,-0.421467,0.299424,-0.310325
2024-01-01 00:00:13.340,0.751011,-0.52412,6.821167,-0.397893,0.364541,-0.124724
2024-01-01 00:00:13.350,0.571415,-0.983636,6.776577,-0.236637,0.420671,-0.366935
2024-01-01 00:00:13.360,-0.086943,-0.610876,6.72102,-0.158281,0.438834,-0.343598
2024-01-01 00:00:13.370,0.881833,-0.437961,6.150134,-0.505479,0.256443,-0.174982
2024-01-01 00:00:13.380,0.298314,-0.510158,7.361121,-0.588034,0.239349,-0.379216
2024-01-01 00:00:13.390,0.522708,-0.63159,7.567786,-0.707138,0.088095,-0.344369
2024-01-01 00:00:13.400,0.388,-1.005073,8.202121,-0.711592,0.096792,-0.283801
2024-01-01 00:00:13.410,-0.10242,-1.012116,8.161096,-0.612326,0.160762,-0.179379
2024-01-01 00:00:13.420,0.127485,-0.581565,9.584614,-0.718951,0.282313,-0.291717
2024-01-01 00:00:13.430,-0.447079,-0.842271,10.187834,-0.641275,-0.006394,0.007451
2024-01-01 00:00:13.440,-0.447827,-1.084182,10.447467,-0.39219,-0.274718,-0.059233
2024-01-01 00:00:13.450,-0.458242,-0.523625,10.817347,-0.661937,-0.130994,0.204083
2024-01-01 00:00:13.460,-0.366498,-0.830733,11.911383,-0.654333,-0.063334,0.092394
2024-01-01 00:00:13.470,-0.336096,-0.951583,12.482042,-0.540369,-0.284499,0.128474
2024-01-01 00:00:13.480,-0.765677,-0.798649,11.339686,-0.699223,-0.109615,0.270172
2024-01-01 00:00:13.490,-0.266058,-0.372169,12.793809,-0.611665,-0.311478,0.36499
2024-01-01 00:00:13.500,-0.429216,-0.797933,13.479648,-0.528808,-0.294365,0.330743
2024-01-01 00:00:13.510,-1.268902,-0.617982,12.10355,-0.524662,-0.497369,0.383163
2024-01-01 00:00:13.520,-0.62554,-0.424884,12.261294,-0.484833,-0.27756,0.42432
2024-01-01 00:00:13.530,-0.758226,-0.451527,12.463937,-0.250166,-0.162794,0.476758
2024-01-01 00:00:13.540,-0.67782,-0.372051,12.130598,-0.311528,-0.504531,0.423836
2024-01-01 00:00:13.550,-0.514668,-0.16244,12.093884,-0.142784,-0.705362,0.331268
2024-01-01 00:00:13.560,-0.614356,-0.153521,11.582469,-0.244768,-0.332492,0.258029
2024-01-01 00:00:13.570,-0.74796,0.01966,11.295009,-0.342618,-0.551152,0.197343
2024-01-01 00:00:13.580,-1.055444,-0.22401,9.655785,0.212977,-0.528934,0.019923
2024-01-01 00:00:13.590,-0.600382,0.126226,9.380859,0.032586,-0.474387,0.179284
2024-01-01 00:00:13.600,-0.96377,0.387596,9.674078,0.035181,-0.284732,0.015742
2024-01-01 00:00:13.610,-1.183583,-0.014637,8.239445,0.133251,-0.684391,-0.175403
2024-01-01 00:00:13.620,-1.252932,0.467141,7.78376,0.395923,-0.627317,-0.152278
2024-01-01 00:00:13.630,-0.948578,0.25714,7.631438,0.262483,-0.431318,-0.231109
2024-01-01 00:00:13.640,-0.984622,0.755197,7.206469,0.449768,-0.368634,-0.161885
2024-01-01 00:00:13.650,-0.33904,0.32309,7.085323,0.317137,-0.554585,-0.430108
2024-01-01 00:00:13.660,-1.606229,0.504628,7.40753,0.66899,-0.449109,-0.251593
2024-01-01 00:00:13.670,-0.765726,0.538654,6.589807,0.663473,-0.328046,-0.382516
2024-01-01 00:00:13.680,-0.732333,0.791446,6.462376,0.411495,-0.275537,-0.575105
2024-01-01 00:00:13.690,-0.824204,0.940718,7.025216,0.364434,-0.348425,-0.410369
2024-01-01 00:00:13.700,-0.230594,0.455679,7.67279,0.620653,-0.032481,-0.308581
2024-01-01 00:00:13.710,-0.266608,0.991249,7.958045,0.696128,-0.225089,-0.19407
2024-01-01 00:00:13.720,-0.498204,0.938745,7.69225,0.755362,-0.086649,-0.277622
2024-01-01 00:00:13.730,-0.622215,0.644932,9.663976,0.890261,-0.232631,-0.014557
2024-01-01 00:00:13.740,0.218914,1.029786,8.767433,0.598832,-0.081608,-0.095055
2024-01-01 00:00:13.750,0.082848,0.473849,10.328688,0.455585,0.074908,0.083659
2024-01-01 00:00:13.760,0.000779,0.698587,10.059334,0.927435,0.182986,0.129964
2024-01-01 00:00:13.770,0.064774,0.723103,11.415956,0.757002,0.064051,0.093625
2024-01-01 00:00:13.780,0.309783,0.571364,11.846074,1.022839,-0.165311,0.167856
2024-01-01 00:00:13.790,0.770333,0.776145,12.261418,0.902711,0.251317,0.329147
2024-01-01 00:00:13.800,0.57236,0.644516,12.616494,0.73314,0.433631,0.292241
2024-01-01 00:00:13.810,0.227919,0.473907,12.322772,0.503503,0.201415,0.432675
2024-01-01 00:00:13.820,0.454837,0.899608,12.761134,0.546672,0.466048,0.383502
2024-01-01 00:00:13.830,0.114537,0.458474,13.03938,0.355337,0.239997,0.340952
2024-01-01 00:00:13.840,-0.042956,0.416664,12.976567,0.44606,0.466575,0.311928
2024-01-01 00:00:13.850,0.380482,0.356367,13.091791,0.422541,0.370749,0.36094
2024-01-01 00:00:13.860,1.324384,0.245788,11.825292,0.370802,0.607382,0.182424
2024-01-01 00:00:13.870,0.942126,0.350709,11.097018,0.133282,0.686026,0.243813
2024-01-01 00:00:13.880,0.935405,-0.006024,12.208196,0.168882,0.529211,-0.053697
2024-01-01 00:00:13.890,0.411352,-0.055957,10.534256,0.094403,0.57071,-0.124924
2024-01-01 00:00:13.900,0.537869,-0.05308,9.530456,0.150805,0.639862,-0.121978
2024-01-01 00:00:13.910,0.83024,-0.084569,9.305293,-0.217573,0.343667,-0.106433
2024-01-01 00:00:13.920,0.812525,-0.291508,8.479165,-0.101521,0.524142,-0.078203
2024-01-01 00:00:13.930,0.565159,-0.323369,7.229085,-0.037311,0.657331,-0.130151
2024-01-01 00:00:13.940,0.704659,-0.270446,7.755586,-0.136768,0.651859,-0.282065
2024-01-01 00:00:13.950,0.657027,-0.001972,6.740994,-0.486418,0.292726,-0.538376
2024-01-01 00:00:13.960,1.13055,-0.075135,6.915826,-0.358277,0.315456,-0.28634
2024-01-01 00:00:13.970,0.438633,-0.247254,6.811879,-0.39379,0.466104,-0.311871
2024-01-01 00:00:13.980,1.242138,-0.230798,6.69028,-0.643844,0.148293,-0.391893
2024-01-01 00:00:13.990,0.187575,-0.805203,6.35245,-0.324635,0.156416,-0.493679
2024-01-01 00:00:14.000,-0.04375,-0.358496,7.511695,-0.578033,0.390387,-0.345373
2024-01-01 00:00:14.010,0.395273,-0.280482,7.839683,-0.534891,0.410357,-0.275382
2024-01-01 00:00:14.020,0.645361,-0.899721,6.9419,-0.685681,0.019897,-0.226235
2024-01-01 00:00:14.030,0.82398,-0.661716,8.231207,-0.37736,0.144221,-0.133168
2024-01-01 00:00:14.040,0.13161,-0.409737,8.117306,-0.607944,0.074933,0.028493
2024-01-01 00:00:14.050,0.058126,-0.750136,9.343273,-0.735773,0.134072,0.155099
2024-01-01 00:00:14.060,-0.330585,-0.552257,10.069315,-0.753248,0.161261,0.071179
2024-01-01 00:00:14.070,-0.538029,-0.594907,9.824676,-0.812139,0.096348,0.187591
2024-01-01 00:00:14.080,-0.417077,-0.644033,11.441229,-0.756725,-0.080304,0.040618
2024-01-01 00:00:14.090,0.056934,-0.69661,11.634145,-0.518121,-0.296752,0.200678
2024-01-01 00:00:14.100,-0.190328,-0.79736,12.022052,-0.749269,-0.365623,0.445433
2024-01-01 00:00:14.110,-0.780834,-0.402846,12.453709,-0.582064,-0.400782,0.335674
2024-01-01 00:00:14.120,-0.263139,-0.773829,12.02221,-0.546525,-0.139526,0.292234
2024-01-01 00:00:14.130,-1.014357,-0.396406,12.28665,-0.512979,-0.540984,0.31777
2024-01-01 00:00:14.140,-0.716514,-0.501328,13.024995,-0.279755,-0.456702,0.393275
2024-01-01 00:00:14.150,-0.831971,-0.209504,12.361417,-0.373015,-0.398318,0.292361
2024-01-01 00:00:14.160,-0.94117,-0.205556,12.39516,-0.4337,-0.416932,0.302866
2024-01-01 00:00:14.170,-0.706516,-0.304595,12.113202,-0.241847,-0.32932,0.132141
2024-01-01 00:00:14.180,-0.869464,-0.103542,11.848233,-0.325986,-0.653292,0.394505
2024-01-01 00:00:14.190,-0.806758,-0.304231,10.810529,0.007947,-0.403783,0.040623
2024-01-01 00:00:14.200,-0.791802,-0.087459,10.842593,-0.027507,-0.421737,0.134543
2024-01-01 00:00:14.210,-0.700223,0.084414,10.508686,0.340975,-0.709979,0.2446
2024-01-01 00:00:14.220,-0.820765,-0.113912,9.42736,-0.163118,-0.520449,-0.321038
2024-01-01 00:00:14.230,-0.333692,0.217242,8.99358,-0.012033,-0.560274,-0.125354
2024-01-01 00:00:14.240,-0.917823,0.344544,8.355427,0.156759,-0.564106,-0.178116
2024-01-01 00:00:14.250,-0.237714,0.508932,7.764306,0.320972,-0.461548,-0.211802
2024-01-01 00:00:14.260,-0.76652,0.484149,7.491895,0.221346,-0.479225,-0.32074
2024-01-01 00:00:14.270,-0.620401,0.360305,7.422335,0.282994,-0.307168,-0.080587
2024-01-01 00:00:14.280,-0.645054,0.353752,7.007061,0.529266,-0.311255,-0.408086
2024-01-01 00:00:14.290,-0.836974,0.528478,6.436525,0.694963,-0.666705,-0.532056
2024-01-01 00:00:14.300,-0.117676,0.573435,7.315648,0.640409,-0.39293,-0.244544
2024-01-01 00:00:14.310,-0.206068,0.812128,7.101824,0.413131,-0.133742,-0.319278
2024-01-01 00:00:14.320,-0.630047,0.603896,7.296196,0.523725,-0.23025,-0.343234
2024-01-01 00:00:14.330,-0.741424,0.351102,7.985976,0.661343,-0.209289,-0.187072
2024-01-01 00:00:14.340,-0.428402,0.78943,7.649297,0.361467,-0.121541,-0.41067
2024-01-01 00:00:14.350,-0.599368,0.79984,8.64055,0.644523,-0.086255,-0.102631
2024-01-01 00:00:14.360,-0.928907,0.929669,8.632217,0.815034,-0.055897,0.058671
2024-01-01 00:00:14.370,0.076215,0.951293,9.273998,0.53162,-0.013465,0.108735
2024-01-01 00:00:14.380,-0.085361,0.846807,10.73659,0.704872,0.076266,-0.107673
2024-01-01 00:00:14.390,-0.035482,0.659797,10.890211,0.526253,-0.028787,-0.135392
2024-01-01 00:00:14.400,0.381343,0.764556,11.821569,0.591048,0.124108,0.247024
2024-01-01 00:00:14.410,0.21794,0.494499,12.407756,0.622148,0.343382,0.31338
2024-01-01 00:00:14.420,-0.018853,0.4822,12.034186,0.601595,0.312697,0.250292
2024-01-01 00:00:14.430,0.056001,0.517132,13.293001,0.678822,0.314589,0.317677
2024-01-01 00:00:14.440,0.276144,0.452744,12.498386,0.443174,0.320481,0.400023
2024-01-01 00:00:14.450,0.878697,0.395507,12.779389,0.387629,0.372655,0.40211
2024-01-01 00:00:14.460,-0.029955,0.536125,12.252014,0.33456,0.541736,0.42041
2024-01-01 00:00:14.470,0.660808,0.603176,12.134299,0.137004,0.366203,0.370562
2024-01-01 00:00:14.480,1.223017,0.132174,12.440841,0.218386,0.606105,0.205803
2024-01-01 00:00:14.490,1.006299,0.329468,12.000666,0.357504,0.532678,0.185735
2024-01-01 00:00:14.500,1.04048,0.104211,11.667016,0.368015,0.595803,0.025424
2024-01-01 00:00:14.510,0.867414,-0.022544,11.505361,0.076035,0.478653,0.023482
2024-01-01 00:00:14.520,0.570113,-0.083052,10.194426,0.139904,0.524832,-0.030794
2024-01-01 00:00:14.530,0.80601,-0.07833,9.839247,0.106102,0.408618,0.023273
2024-01-01 00:00:14.540,0.660073,-0.258323,8.974343,0.012089,0.590335,-0.108797
2024-01-01 00:00:14.550,0.386619,-0.192769,7.727953,-0.22271,0.376406,-0.059138
2024-01-01 00:00:14.560,0.137711,-0.184616,7.929211,-0.111211,0.547841,-0.060873
2024-01-01 00:00:14.570,0.844331,-0.138576,7.372752,-0.176212,0.546016,-0.311749
2024-01-01 00:00:14.580,0.633902,-0.042478,7.370395,-0.364364,0.418719,-0.47647
2024-01-01 00:00:14.590,0.403935,-0.619695,6.386375,-0.098126,0.403065,-0.435565
2024-01-01 00:00:14.600,-0.002739,-0.545737,6.354632,-0.337998,0.481705,-0.460673
2024-01-01 00:00:14.610,0.626771,-0.654202,6.413638,-0.391911,0.49521,-0.27724
2024-01-01 00:00:14.620,0.619835,-0.78561,6.46479,-0.25166,0.208433,-0.163282
2024-01-01 00:00:14.630,0.939586,-0.412827,7.413938,-0.553692,0.357135,-0.340712
2024-01-01 00:00:14.640,0.759184,-0.498178,7.37114,-0.651404,0.494691,-0.268459
2024-01-01 00:00:14.650,0.602811,-0.27483,7.664985,-0.485009,0.091707,-0.213361
2024-01-01 00:00:14.660,0.481918,-0.68404,8.598899,-0.486424,0.247938,-0.164173
2024-01-01 00:00:14.670,-0.719589,-0.961366,9.616023,-0.733328,0.173167,-0.069554
2024-01-01 00:00:14.680,-0.015021,-0.782782,9.799977,-0.381906,-0.16335,0.189498
2024-01-01 00:00:14.690,0.110049,-0.696675,9.735947,-0.756773,-0.058622,0.128475
2024-01-01 00:00:14.700,0.085151,-0.834853,10.899163,-0.660773,-0.127765,0.149532
2024-01-01 00:00:14.710,0.104122,-0.797891,11.621911,-0.748451,-0.273499,0.15477
2024-01-01 00:00:14.720,0.251744,-0.742322,11.250389,-0.772318,-0.203461,0.19949
2024-01-01 00:00:14.730,-0.164242,-0.690146,12.435056,-0.443355,-0.281372,0.349773
2024-01-01 00:00:14.740,-0.12167,-0.859448,12.813024,-0.547849,-0.137404,0.341241
2024-01-01 00:00:14.750,-0.148967,-0.484446,12.974886,-0.709125,-0.354785,0.205107
2024-01-01 00:00:14.760,-0.492385,-0.64468,13.341078,-0.530684,-0.505094,0.353458
2024-01-01 00:00:14.770,-0.781998,-0.690697,12.900898,-0.407778,-0.507185,0.370876
2024-01-01 00:00:14.780,-0.800848,-0.374714,12.447982,-0.441355,-0.252724,0.390843
2024-01-01 00:00:14.790,-0.72247,-0.365658,11.984443,-0.161478,-0.565775,0.274411
2024-01-01 00:00:14.800,-0.857919,-0.285138,12.009198,-0.436063,-0.278469,0.184208
2024-01-01 00:00:14.810,-0.542845,-0.160405,11.567515,-0.198642,-0.682591,0.043821
2024-01-01 00:00:14.820,-0.396342,-0.261539,10.48568,-0.146249,-0.403166,0.126675
2024-01-01 00:00:14.830,-0.486908,-0.196069,10.4911,-0.042173,-0.618596,0.009449
2024-01-01 00:00:14.840,-0.626765,0.264947,10.39548,-0.072976,-0.672656,0.048755
2024-01-01 00:00:14.850,-0.969781,0.037016,8.987532,0.004395,-0.655573,0.032953
2024-01-01 00:00:14.860,-1.114224,0.219932,8.084589,0.097176,-0.571433,-0.134735
2024-01-01 00:00:14.870,-0.626101,0.244834,7.268603,0.208016,-0.486459,-0.07164
2024-01-01 00:00:14.880,-0.764061,0.44458,7.606342,0.38799,-0.291265,-0.218167
2024-01-01 00:00:14.890,-0.56138,0.586077,6.776582,0.353311,-0.234935,-0.43451
2024-01-01 00:00:14.900,-0.924411,0.467463,6.835197,0.272883,-0.374073,-0.431308
2024-01-01 00:00:14.910,-0.127818,0.191296,6.760318,0.478481,-0.451254,-0.252349
2024-01-01 00:00:14.920,-0.284874,0.364122,6.478695,0.30116,-0.356117,-0.258135
