timestamp,acc_x,acc_y,acc_z,gyro_x,gyro_y,gyro_z
2024-01-01 00:00:00.000,0.039737,0.197375,9.642888,0.38827,0.058741,-0.004303
2024-01-01 00:00:00.010,0.041146,0.278806,10.222383,0.401307,-0.064945,0.03359
2024-01-01 00:00:00.020,0.155524,0.30749,10.655439,0.365513,0.041226,0.069207
2024-01-01 00:00:00.030,0.275653,0.479935,11.141149,0.231795,0.083367,0.12477
2024-01-01 00:00:00.040,0.183103,0.357344,11.541733,0.305049,0.112926,0.097846
2024-01-01 00:00:00.050,0.228402,0.185657,11.954972,0.23471,0.146321,0.112296
2024-01-01 00:00:00.060,0.415431,0.307103,11.928047,0.25809,0.19113,0.184795
2024-01-01 00:00:00.070,0.388545,0.116538,11.768572,0.289323,0.17998,0.135876
2024-01-01 00:00:00.080,0.323231,0.295795,12.089369,0.224437,0.182035,0.105861
2024-01-01 00:00:00.090,0.432959,0.137522,11.591227,0.232616,0.19604,0.115455
2024-01-01 00:00:00.100,0.375985,0.131386,11.403755,0.155965,0.198901,0.099364
2024-01-01 00:00:00.110,0.393727,0.206731,11.089036,0.035751,0.278813,0.129289
2024-01-01 00:00:00.120,0.462448,-0.041875,10.596235,-0.064945,0.213835,0.07931
2024-01-01 00:00:00.130,0.29615,-0.091066,10.233939,0.028144,0.291901,0.05214
2024-01-01 00:00:00.140,0.311273,-0.066659,9.631194,-0.030667,0.250543,0.007509
2024-01-01 00:00:00.150,0.398271,0.022695,8.933174,-0.109223,0.22019,-0.022587
2024-01-01 00:00:00.160,0.350229,-0.221512,8.932432,-0.184996,0.270507,-0.102757
2024-01-01 00:00:00.170,0.438572,-0.364776,8.242917,-0.174941,0.193312,-0.114792
2024-01-01 00:00:00.180,0.317383,-0.210669,7.885723,-0.184301,0.24859,-0.159391
2024-01-01 00:00:00.190,0.248367,-0.164452,7.848882,-0.175297,0.211387,-0.149886
2024-01-01 00:00:00.200,0.445049,-0.143768,7.651547,-0.230358,0.152293,-0.129195
2024-01-01 00:00:00.210,0.271754,-0.304802,7.702074,-0.187345,0.187441,-0.143768
2024-01-01 00:00:00.220,0.253323,-0.325006,8.160789,-0.343872,0.165063,-0.09859
2024-01-01 00:00:00.230,0.088697,-0.220179,7.999383,-0.268438,0.170474,-0.15488
2024-01-01 00:00:00.240,0.111146,-0.478248,8.341936,-0.326304,0.13425,-0.081838
2024-01-01 00:00:00.250,0.1135,-0.37149,8.832508,-0.305675,0.082689,-0.105289
2024-01-01 00:00:00.260,-0.038936,-0.332317,9.454739,-0.369376,-0.026855,-0.032356
2024-01-01 00:00:00.270,0.030999,-0.314062,9.574802,-0.296415,0.122953,0.021581
2024-01-01 00:00:00.280,-0.099322,-0.388505,10.013215,-0.33296,-0.098664,0.027523
2024-01-01 00:00:00.290,-0.126127,-0.337991,10.700433,-0.374719,-0.009643,0.08325
2024-01-01 00:00:00.300,-0.201061,-0.528236,10.971183,-0.329771,-0.063394,0.06709
2024-01-01 00:00:00.310,-0.052809,-0.365808,11.504606,-0.325126,-0.170369,0.069975
2024-01-01 00:00:00.320,-0.247424,-0.256617,11.901098,-0.268438,-0.143073,0.154147
2024-01-01 00:00:00.330,-0.372988,-0.347274,11.84098,-0.32768,-0.164144,0.199906
2024-01-01 00:00:00.340,-0.260699,-0.236137,11.792898,-0.242323,-0.116111,0.119909
2024-01-01 00:00:00.350,-0.457892,-0.174017,11.931374,-0.190002,-0.23579,0.180596
2024-01-01 00:00:00.360,-0.372372,-0.20325,11.850753,-0.174195,-0.229254,0.131624
2024-01-01 00:00:00.370,-0.569457,-0.125913,11.164619,-0.072203,-0.346072,0.069625
2024-01-01 00:00:00.380,-0.536968,-0.178388,11.152773,-0.062668,-0.152547,0.049219
2024-01-01 00:00:00.390,-0.427176,-0.078349,10.697539,-0.062194,-0.299593,0.052629
2024-01-01 00:00:00.400,-0.390078,0.027382,10.222077,-0.010601,-0.233185,0.006205
2024-01-01 00:00:00.410,-0.43561,0.031797,9.751276,0.034022,-0.254692,-0.055853
2024-01-01 00:00:00.420,-0.452668,0.012731,9.401349,0.079818,-0.251242,-0.101204
2024-01-01 00:00:00.430,-0.455612,0.117199,8.559959,0.007979,-0.199242,-0.10699
2024-01-01 00:00:00.440,-0.532085,0.194699,8.23656,0.122454,-0.146328,-0.102586
2024-01-01 00:00:00.450,-0.448082,0.009945,7.850007,0.099719,-0.204367,-0.129569
2024-01-01 00:00:00.460,-0.398763,0.300728,7.707278,0.271916,-0.168308,-0.158425
2024-01-01 00:00:00.470,-0.243872,0.212354,7.844645,0.236212,-0.166023,-0.143622
2024-01-01 00:00:00.480,-0.263047,0.301315,7.438885,0.257609,-0.110533,-0.11671
2024-01-01 00:00:00.490,-0.38975,0.387467,7.654199,0.336527,-0.161316,-0.126356
2024-01-01 00:00:00.500,-0.177592,0.202426,8.241765,0.333276,-0.059296,-0.124649
2024-01-01 00:00:00.510,-0.186388,0.271661,8.535578,0.271984,-0.030909,-0.069482
2024-01-01 00:00:00.520,-0.159697,0.317153,8.752339,0.336692,-0.004508,-0.097195
2024-01-01 00:00:00.530,-0.005145,0.284763,9.413215,0.330705,-0.063052,-0.042539
2024-01-01 00:00:00.540,0.080594,0.488792,9.842746,0.26277,-0.009464,-0.00729
2024-01-01 00:00:00.550,0.124836,0.279262,10.524106,0.31329,0.039937,-0.003763
2024-01-01 00:00:00.560,0.034736,0.296469,10.791412,0.331736,-0.011946,0.053556
2024-01-01 00:00:00.570,0.1273,0.34577,11.363014,0.323671,0.164211,0.033149
2024-01-01 00:00:00.580,0.226649,0.217303,11.959076,0.239364,0.110579,0.176873
2024-01-01 00:00:00.590,0.323599,0.261644,11.911727,0.350881,0.150616,0.10906
2024-01-01 00:00:00.600,0.249312,0.294556,11.980325,0.264055,0.130953,0.195056
2024-01-01 00:00:00.610,0.311,0.214758,12.115758,0.243265,0.114685,0.150965
2024-01-01 00:00:00.620,0.271152,0.202883,11.868758,0.230386,0.169609,0.161052
2024-01-01 00:00:00.630,0.29291,0.134133,12.084115,0.137076,0.226853,0.115967
2024-01-01 00:00:00.640,0.477309,0.019065,11.452149,0.16304,0.262731,0.116361
2024-01-01 00:00:00.650,0.538938,0.127798,10.996459,0.083717,0.247222,0.103201
2024-01-01 00:00:00.660,0.436997,0.202936,10.458226,0.017712,0.263313,0.072681
2024-01-01 00:00:00.670,0.529379,0.023639,10.252694,0.050839,0.232647,0.042205
2024-01-01 00:00:00.680,0.478301,-0.000486,9.707747,0.056077,0.274463,-0.026891
2024-01-01 00:00:00.690,0.391966,-0.003513,9.005133,-0.022689,0.320572,-0.064202
2024-01-01 00:00:00.700,0.460702,-0.200105,8.707587,-0.05241,0.275123,-0.128885
2024-01-01 00:00:00.710,0.537216,-0.000654,8.000227,-0.162887,0.270573,-0.092269
2024-01-01 00:00:00.720,0.388096,-0.157118,7.9449,-0.253185,0.231902,-0.096586
2024-01-01 00:00:00.730,0.487643,-0.076863,7.77762,-0.132905,0.126215,-0.094722
2024-01-01 00:00:00.740,0.119506,-0.297361,7.871435,-0.135993,0.130592,-0.140481
2024-01-01 00:00:00.750,0.357008,-0.121357,7.5235,-0.189661,0.184553,-0.171009
2024-01-01 00:00:00.760,0.256456,-0.229269,7.588035,-0.308071,0.13806,-0.189336
2024-01-01 00:00:00.770,0.180438,-0.267584,7.895442,-0.369559,0.135525,-0.09013
2024-01-01 00:00:00.780,0.163806,-0.30944,8.175086,-0.381446,0.170747,-0.15169
2024-01-01 00:00:00.790,-0.052546,-0.359947,8.999112,-0.424251,0.095446,-0.079176
2024-01-01 00:00:00.800,0.037442,-0.251332,9.508403,-0.352743,0.093508,-0.043131
2024-01-01 00:00:00.810,0.031397,-0.338764,9.830378,-0.269709,0.006305,-0.003969
2024-01-01 00:00:00.820,0.068835,-0.505251,10.473267,-0.354968,-0.067803,0.033806
2024-01-01 00:00:00.830,-0.142417,-0.430453,10.792047,-0.325962,-0.058979,0.069732
2024-01-01 00:00:00.840,-0.215829,-0.344533,11.187777,-0.260886,-0.12421,0.022451
2024-01-01 00:00:00.850,-0.239443,-0.289001,11.507232,-0.334005,-0.032809,0.119566
2024-01-01 00:00:00.860,-0.171532,-0.298225,11.771707,-0.191921,-0.096461,0.07004
2024-01-01 00:00:00.870,-0.260621,-0.172111,11.739051,-0.170023,-0.133375,0.169323
2024-01-01 00:00:00.880,-0.367583,-0.398006,12.047458,-0.248473,-0.118871,0.133198
2024-01-01 00:00:00.890,-0.31803,-0.199452,11.920041,-0.239816,-0.300498,0.079568
2024-01-01 00:00:00.900,-0.380364,-0.322551,11.842238,-0.142251,-0.186221,0.106513
2024-01-01 00:00:00.910,-0.334437,-0.080117,11.445411,-0.15827,-0.294381,0.093447
2024-01-01 00:00:00.920,-0.486327,-0.110329,11.020633,-0.1606,-0.239342,0.119928
2024-01-01 00:00:00.930,-0.468801,-0.029694,10.461523,0.000799,-0.261468,0.059231
2024-01-01 00:00:00.940,-0.480405,-0.092009,10.108076,0.037924,-0.216378,0.029919
2024-01-01 00:00:00.950,-0.566501,0.120132,9.697574,0.02555,-0.238268,0.020221
2024-01-01 00:00:00.960,-0.420044,0.141546,8.916937,-0.004936,-0.179263,-0.052082
2024-01-01 00:00:00.970,-0.41117,0.144538,8.642007,0.036378,-0.270125,-0.057905
2024-01-01 00:00:00.980,-0.414132,0.125819,8.26788,0.141542,-0.194845,-0.087012
2024-01-01 00:00:00.990,-0.410195,0.219055,7.814159,0.147673,-0.209349,-0.16733
2024-01-01 00:00:01.000,-0.476259,0.150269,7.62429,0.189766,-0.283448,-0.098824
2024-01-01 00:00:01.010,-0.36338,0.306626,7.650588,0.28928,-0.229113,-0.1922
2024-01-01 00:00:01.020,-0.319391,0.398285,7.467634,0.302986,-0.169702,-0.120594
2024-01-01 00:00:01.030,-0.314458,0.376523,7.828743,0.359781,-0.083428,-0.184177
2024-01-01 00:00:01.040,-0.218101,0.253125,7.890053,0.261962,-0.090813,-0.103711
2024-01-01 00:00:01.050,-0.125025,0.35682,8.528022,0.310747,-0.145791,-0.04242
2024-01-01 00:00:01.060,0.04352,0.236439,9.14111,0.377839,-0.066669,-0.075905
2024-01-01 00:00:01.070,-0.041985,0.393075,9.138056,0.369688,0.069806,-0.044702
2024-01-01 00:00:01.080,0.016833,0.386036,9.853259,0.426607,0.003466,0.015799
2024-01-01 00:00:01.090,0.042504,0.198379,10.172061,0.368991,0.010556,0.022237
2024-01-01 00:00:01.100,-0.053466,0.2483,10.919797,0.433648,0.080163,0.11957
2024-01-01 00:00:01.110,0.14814,0.30726,11.005104,0.356912,0.121648,0.10019
2024-01-01 00:00:01.120,0.203276,0.290056,11.623659,0.367233,0.087446,0.109138
2024-01-01 00:00:01.130,0.441032,0.197338,11.683536,0.27792,0.160669,0.120461
2024-01-01 00:00:01.140,0.270805,0.301213,11.938432,0.27081,0.142552,0.119249
2024-01-01 00:00:01.150,0.348673,0.262565,11.853557,0.287994,0.216272,0.131045
2024-01-01 00:00:01.160,0.355745,0.195982,12.051946,0.292173,0.207664,0.133929
2024-01-01 00:00:01.170,0.294158,0.117281,11.609367,0.214206,0.239461,0.116615
2024-01-01 00:00:01.180,0.502974,0.225461,11.520394,0.137406,0.190679,0.091227
2024-01-01 00:00:01.190,0.49004,0.235905,11.001042,0.17234,0.197761,0.147692
2024-01-01 00:00:01.200,0.505699,0.025299,10.583641,-0.045615,0.293062,0.023016
2024-01-01 00:00:01.210,0.376222,-0.025343,10.128553,-0.047481,0.24546,0.024607
2024-01-01 00:00:01.220,0.56169,0.022255,9.481737,0.01704,0.263955,0.003185
2024-01-01 00:00:01.230,0.331741,-0.086127,9.128708,-0.056779,0.231285,-0.0297
2024-01-01 00:00:01.240,0.479266,-0.108302,8.866224,-0.066875,0.285113,-0.081758
2024-01-01 00:00:01.250,0.590143,-0.076332,8.12265,-0.132284,0.200113,-0.11431
2024-01-01 00:00:01.260,0.31265,-0.324777,8.102388,-0.143481,0.210938,-0.114866
2024-01-01 00:00:01.270,0.318282,-0.100765,7.939982,-0.246949,0.241292,-0.134827
2024-01-01 00:00:01.280,0.338341,-0.23183,7.494273,-0.20912,0.242187,-0.157312
2024-01-01 00:00:01.290,0.252412,-0.29877,7.417951,-0.216129,0.136418,-0.195069
2024-01-01 00:00:01.300,0.127006,-0.297605,7.818051,-0.229438,0.237461,-0.152941
2024-01-01 00:00:01.310,0.211522,-0.314164,7.936876,-0.210481,0.130127,-0.156511
2024-01-01 00:00:01.320,0.073248,-0.466145,8.641933,-0.315444,0.03576,-0.118766
2024-01-01 00:00:01.330,0.146178,-0.22012,8.787497,-0.326019,0.078614,-0.069075
2024-01-01 00:00:01.340,-0.016668,-0.343886,9.137911,-0.423351,0.012454,-0.026858
2024-01-01 00:00:01.350,0.128709,-0.314541,9.591837,-0.376551,0.024322,0.050271
2024-01-01 00:00:01.360,-0.110182,-0.271919,10.435549,-0.357697,-0.028544,0.015382
2024-01-01 00:00:01.370,-0.124881,-0.423098,10.669661,-0.288889,-0.051351,0.087694
2024-01-01 00:00:01.380,-0.084291,-0.292278,11.194292,-0.360705,-0.128564,0.103114
2024-01-01 00:00:01.390,-0.29608,-0.335859,11.689293,-0.27463,-0.060281,0.157238
2024-01-01 00:00:01.400,-0.224983,-0.226751,11.738029,-0.294574,-0.192906,0.153696
2024-01-01 00:00:01.410,-0.180894,-0.440739,11.96081,-0.279419,-0.21403,0.116861
2024-01-01 00:00:01.420,-0.452494,-0.250903,12.006078,-0.23053,-0.161574,0.098211
2024-01-01 00:00:01.430,-0.343181,-0.260333,12.033558,-0.231666,-0.11872,0.153956
2024-01-01 00:00:01.440,-0.366382,-0.143795,11.827972,-0.199828,-0.232726,0.115694
2024-01-01 00:00:01.450,-0.34862,-0.104631,11.41077,-0.227474,-0.193377,0.081985
2024-01-01 00:00:01.460,-0.528562,-0.160783,11.0698,-0.116571,-0.185003,0.047217
2024-01-01 00:00:01.470,-0.54788,-0.121678,10.55364,-0.088703,-0.204957,0.059334
2024-01-01 00:00:01.480,-0.407153,-0.033215,9.89388,-0.050161,-0.264954,0.066062
2024-01-01 00:00:01.490,-0.425752,-0.055422,9.643827,0.037153,-0.304281,-0.026225
2024-01-01 00:00:01.500,-0.424004,0.12412,9.389709,0.089693,-0.357068,-0.0303
2024-01-01 00:00:01.510,-0.404862,0.066909,8.511924,0.108055,-0.253463,-0.082535
2024-01-01 00:00:01.520,-0.469673,-0.097731,8.129879,0.184599,-0.171802,-0.145329
2024-01-01 00:00:01.530,-0.373775,0.141403,7.800788,0.200167,-0.274183,-0.106042
2024-01-01 00:00:01.540,-0.340695,0.122552,7.826792,0.190883,-0.16729,-0.17547
2024-01-01 00:00:01.550,-0.388157,0.106603,7.684707,0.213963,-0.231401,-0.148844
2024-01-01 00:00:01.560,-0.144144,0.166379,7.611029,0.281014,-0.1577,-0.158554
2024-01-01 00:00:01.570,-0.213934,0.298809,7.631592,0.318744,-0.104522,-0.112347
2024-01-01 00:00:01.580,-0.302179,0.417113,8.027506,0.380714,-0.147905,-0.154223
2024-01-01 00:00:01.590,-0.10659,0.352445,8.120023,0.386949,-0.079873,-0.087498
2024-01-01 00:00:01.600,-0.18718,0.291017,8.795648,0.312464,-0.081424,-0.095821
2024-01-01 00:00:01.610,0.005145,0.383571,9.38005,0.341998,0.003134,-0.053561
2024-01-01 00:00:01.620,0.087031,0.313245,9.567015,0.383523,0.008623,-0.112827
2024-01-01 00:00:01.630,-0.01907,0.292552,10.033169,0.401519,0.028706,0.093652
2024-01-01 00:00:01.640,0.175267,0.249216,10.983922,0.388514,0.132471,0.080404
2024-01-01 00:00:01.650,0.181505,0.190252,11.088755,0.327204,0.115606,0.070424
2024-01-01 00:00:01.660,0.262528,0.283575,11.710637,0.252068,0.074795,0.084232
2024-01-01 00:00:01.670,0.39413,0.307533,11.783716,0.244942,0.130366,0.121277
2024-01-01 00:00:01.680,0.265105,0.263296,11.941588,0.284657,0.154392,0.168498
2024-01-01 00:00:01.690,0.262942,0.210225,12.074639,0.260614,0.183594,0.093161
2024-01-01 00:00:01.700,0.286218,0.137031,11.800888,0.157757,0.32477,0.140536
2024-01-01 00:00:01.710,0.321427,0.227666,11.763648,0.181235,0.233371,0.184967
2024-01-01 00:00:01.720,0.404614,0.037534,11.392723,0.174466,0.126417,0.077796
2024-01-01 00:00:01.730,0.456616,0.166955,10.869753,0.047312,0.211373,0.088172
2024-01-01 00:00:01.740,0.464203,-0.014752,10.66861,0.120675,0.148975,0.121189
2024-01-01 00:00:01.750,0.515017,-0.035101,10.085152,0.006217,0.232867,0.040418
2024-01-01 00:00:01.760,0.450594,-0.13292,9.590814,0.047304,0.150387,-0.009561
2024-01-01 00:00:01.770,0.560478,-0.096149,8.933096,-0.08271,0.203195,-0.032213
2024-01-01 00:00:01.780,0.411664,-0.017716,8.89102,-0.147072,0.164429,-0.090959
2024-01-01 00:00:01.790,0.633246,-0.092901,8.383837,-0.157058,0.250115,-0.067216
2024-01-01 00:00:01.800,0.442869,-0.092476,8.080835,-0.175507,0.218258,-0.139738
2024-01-01 00:00:01.810,0.296121,-0.163271,7.675159,-0.224466,0.217756,-0.201209
2024-01-01 00:00:01.820,0.245975,-0.324859,7.358833,-0.247366,0.17902,-0.161179
2024-01-01 00:00:01.830,0.332718,-0.291357,7.926386,-0.248196,0.093685,-0.177403
2024-01-01 00:00:01.840,0.234745,-0.352061,7.756704,-0.298204,0.166021,-0.147808
2024-01-01 00:00:01.850,0.264831,-0.204038,7.896023,-0.31379,0.211506,-0.130613
2024-01-01 00:00:01.860,0.197855,-0.422874,8.410336,-0.412592,0.109347,-0.063772
2024-01-01 00:00:01.870,0.104293,-0.267863,8.941079,-0.319774,0.039881,-0.050322
2024-01-01 00:00:01.880,-0.008987,-0.275567,9.236955,-0.351464,-0.038761,-0.030938
2024-01-01 00:00:01.890,-0.114588,-0.203593,9.937267,-0.269448,-0.041737,-0.004487
2024-01-01 00:00:01.900,-0.081368,-0.38097,10.416472,-0.395173,-0.002707,-0.001492
2024-01-01 00:00:01.910,-0.028764,-0.284739,10.5772,-0.432139,-0.000387,-0.002118
2024-01-01 00:00:01.920,-0.130465,-0.148107,11.072227,-0.299736,-0.068952,0.096347
2024-01-01 00:00:01.930,-0.295574,-0.3645,11.678166,-0.297762,-0.068847,0.141421
2024-01-01 00:00:01.940,-0.227737,-0.418086,11.396037,-0.345704,-0.098834,0.132632
2024-01-01 00:00:01.950,-0.25318,-0.42189,11.941607,-0.347976,-0.132454,0.13082
2024-01-01 00:00:01.960,-0.393292,-0.187012,11.794528,-0.167159,-0.212137,0.163877
2024-01-01 00:00:01.970,-0.344508,-0.363924,11.864396,-0.142567,-0.189529,0.142446
2024-01-01 00:00:01.980,-0.381552,-0.209422,11.703329,-0.304009,-0.256979,0.182719
2024-01-01 00:00:01.990,-0.501833,-0.108589,11.40234,-0.166485,-0.227126,0.149214
2024-01-01 00:00:02.000,-0.400418,-0.090758,10.99254,-0.022363,-0.221813,0.115061
2024-01-01 00:00:02.010,-0.397028,-0.03211,10.461984,-0.089948,-0.161556,0.078406
2024-01-01 00:00:02.020,-0.362129,-0.008042,10.477555,-0.050355,-0.314805,-0.01663
2024-01-01 00:00:02.030,-0.365291,0.117154,9.90367,0.000707,-0.2257,0.007177
2024-01-01 00:00:02.040,-0.554558,-0.020872,8.949062,-0.000732,-0.172796,-0.035526
2024-01-01 00:00:02.050,-0.50812,0.040875,8.897477,0.009796,-0.202665,-0.060205
2024-01-01 00:00:02.060,-0.374791,0.071661,8.198933,0.186101,-0.18946,-0.090982
2024-01-01 00:00:02.070,-0.352172,0.236524,7.960436,0.077962,-0.189101,-0.113845
2024-01-01 00:00:02.080,-0.324042,0.276479,7.714394,0.216811,-0.137997,-0.061209
2024-01-01 00:00:02.090,-0.024064,0.272123,7.520063,0.280353,-0.238976,-0.15167
2024-01-01 00:00:02.100,-0.249162,0.359094,7.779703,0.191853,-0.233092,-0.120401
2024-01-01 00:00:02.110,-0.162556,0.194989,7.781362,0.243019,-0.141095,-0.153733
2024-01-01 00:00:02.120,-0.132227,0.443523,7.931586,0.370804,-0.223918,-0.099481
2024-01-01 00:00:02.130,-0.108765,0.448728,8.145252,0.353514,-0.027844,-0.071984
2024-01-01 00:00:02.140,-0.136255,0.398028,8.623866,0.308314,-0.00065,-0.060801
2024-01-01 00:00:02.150,0.001027,0.489451,8.985307,0.40702,-0.054829,0.010635
2024-01-01 00:00:02.160,-0.069368,0.217421,9.7381,0.410278,-0.022729,-0.031556
2024-01-01 00:00:02.170,0.025763,0.306312,10.065489,0.361721,0.021221,0.015042
2024-01-01 00:00:02.180,0.057527,0.283058,10.690459,0.296874,0.056132,0.069119
2024-01-01 00:00:02.190,0.153251,0.388597,11.371564,0.310207,0.087859,0.118882
2024-01-01 00:00:02.200,0.380238,0.231396,11.708692,0.329727,0.136281,0.122574
2024-01-01 00:00:02.210,0.091414,0.356275,11.794166,0.286246,0.125144,0.174187
2024-01-01 00:00:02.220,0.338174,0.381594,11.949069,0.318899,0.204534,0.126886
2024-01-01 00:00:02.230,0.192909,0.30017,12.29137,0.168065,0.201145,0.115741
2024-01-01 00:00:02.240,0.318476,0.236554,12.016347,0.13914,0.167558,0.154351
2024-01-01 00:00:02.250,0.47284,0.101235,11.703326,0.189309,0.281047,0.130128
2024-01-01 00:00:02.260,0.415151,0.076494,11.248276,0.119665,0.159869,0.128934
2024-01-01 00:00:02.270,0.342536,0.206241,11.14199,0.074919,0.233589,0.085967
2024-01-01 00:00:02.280,0.384487,0.129213,10.759506,-0.021538,0.293741,0.046057
2024-01-01 00:00:02.290,0.503071,0.023434,10.048136,0.027533,0.213126,0.020449
2024-01-01 00:00:02.300,0.391205,-0.047545,9.676418,-0.01675,0.265274,-0.011221
2024-01-01 00:00:02.310,0.46181,-0.216654,9.0776,-0.021915,0.274107,-0.055367
2024-01-01 00:00:02.320,0.436994,-0.179997,8.640424,-0.090884,0.197723,-0.083956
2024-01-01 00:00:02.330,0.364224,0.020118,7.89223,-0.139425,0.227683,-0.117421
2024-01-01 00:00:02.340,0.565248,-0.271904,7.912671,-0.110618,0.210915,-0.101395
2024-01-01 00:00:02.350,0.416509,-0.188693,7.872236,-0.269475,0.175633,-0.136214
2024-01-01 00:00:02.360,0.170907,-0.154887,7.525169,-0.208663,0.300038,-0.081624
2024-01-01 00:00:02.370,0.310461,-0.364327,7.638719,-0.34749,0.126036,-0.143758
2024-01-01 00:00:02.380,0.201237,-0.274042,7.645732,-0.330737,0.191458,-0.156358
2024-01-01 00:00:02.390,0.277577,-0.234771,8.051892,-0.370438,0.096683,-0.043437
2024-01-01 00:00:02.400,0.098355,-0.325606,8.301613,-0.287509,0.035533,-0.088221
2024-01-01 00:00:02.410,0.102768,-0.109525,8.608933,-0.342267,0.067333,-0.042581
2024-01-01 00:00:02.420,0.101024,-0.480297,9.422507,-0.347484,0.066135,-0.022285
2024-01-01 00:00:02.430,0.077745,-0.265239,9.866394,-0.405274,0.050739,0.013035
2024-01-01 00:00:02.440,-0.139794,-0.362165,10.145213,-0.363325,0.053796,0.045112
2024-01-01 00:00:02.450,-0.122195,-0.280285,10.79658,-0.380212,0.094243,0.029113
2024-01-01 00:00:02.460,-0.183805,-0.295813,11.23939,-0.311945,-0.06848,0.102988
2024-01-01 00:00:02.470,-0.246482,-0.374377,11.619373,-0.365279,-0.141052,0.077052
2024-01-01 00:00:02.480,-0.098762,-0.277748,11.540912,-0.229578,-0.110689,0.130113
2024-01-01 00:00:02.490,-0.250142,-0.421044,12.111192,-0.356191,-0.170278,0.124836
2024-01-01 00:00:02.500,-0.422137,-0.196818,11.924132,-0.285404,-0.132183,0.160696
2024-01-01 00:00:02.510,-0.282225,-0.190581,11.886876,-0.130573,-0.262444,0.155289
2024-01-01 00:00:02.520,-0.215465,-0.1298,12.15249,-0.20265,-0.095604,0.147171
2024-01-01 00:00:02.530,-0.327022,-0.060261,11.513532,-0.210654,-0.184764,0.121681
2024-01-01 00:00:02.540,-0.550018,-0.07756,11.032468,-0.096016,-0.322238,0.069096
2024-01-01 00:00:02.550,-0.480269,-0.055738,10.312852,-0.091354,-0.280746,0.049009
2024-01-01 00:00:02.560,-0.347277,-0.097773,10.360458,-0.069081,-0.208435,0.05093
2024-01-01 00:00:02.570,-0.506285,-0.043599,9.440146,-0.041414,-0.191,0.020576
2024-01-01 00:00:02.580,-0.409133,0.148803,8.990396,0.192283,-0.310634,-0.080023
2024-01-01 00:00:02.590,-0.371631,0.20853,8.626215,0.081045,-0.205239,-0.123252
2024-01-01 00:00:02.600,-0.490863,0.113068,8.484443,0.035838,-0.328872,-0.126672
2024-01-01 00:00:02.610,-0.39895,0.172506,8.066836,0.243511,-0.22346,-0.095404
2024-01-01 00:00:02.620,-0.625645,0.130886,7.706138,0.233809,-0.147922,-0.105384
2024-01-01 00:00:02.630,-0.415503,0.32876,7.667015,0.196616,-0.212882,-0.177007
2024-01-01 00:00:02.640,-0.31646,0.316684,7.539536,0.216795,-0.239932,-0.139445
2024-01-01 00:00:02.650,-0.35478,0.443702,7.776755,0.322078,-0.134332,-0.085026
2024-01-01 00:00:02.660,-0.079623,0.239197,8.003615,0.297117,-0.147023,-0.111453
2024-01-01 00:00:02.670,-0.277048,0.296101,8.472584,0.230043,-0.058876,-0.05845
2024-01-01 00:00:02.680,-0.148063,0.357329,8.886827,0.428176,-0.106966,-0.042873
2024-01-01 00:00:02.690,-0.0511,0.398429,9.287843,0.32501,-0.072831,-0.06796
2024-01-01 00:00:02.700,0.105875,0.33267,9.663491,0.424702,-0.106287,-0.011983
2024-01-01 00:00:02.710,-0.072037,0.278574,10.338175,0.412333,0.032293,0.029468
2024-01-01 00:00:02.720,0.187566,0.412706,10.699719,0.292143,0.044462,0.064727
2024-01-01 00:00:02.730,0.145736,0.389045,10.989196,0.383014,0.02109,0.118955
2024-01-01 00:00:02.740,0.114844,0.242738,11.456735,0.283468,0.117115,0.128662
2024-01-01 00:00:02.750,0.276169,0.404893,11.803738,0.203123,0.184243,0.046986
2024-01-01 00:00:02.760,0.297731,0.366488,12.094764,0.251642,0.14578,0.107085
2024-01-01 00:00:02.770,0.272588,0.256344,11.982217,0.265483,0.191523,0.084361
2024-01-01 00:00:02.780,0.360659,0.22138,11.76145,0.191876,0.21093,0.150681
2024-01-01 00:00:02.790,0.353924,0.225845,11.769595,0.166168,0.153533,0.140243
2024-01-01 00:00:02.800,0.418309,0.076641,11.491313,0.202755,0.330178,0.121971
2024-01-01 00:00:02.810,0.481149,0.11007,11.125777,0.112992,0.214335,0.059044
2024-01-01 00:00:02.820,0.568229,-0.103887,10.79015,0.026139,0.277999,0.077645
2024-01-01 00:00:02.830,0.349531,0.098135,10.313935,0.06312,0.287658,0.045426
2024-01-01 00:00:02.840,0.620349,-0.137566,9.561989,-0.002763,0.242857,-0.048487
2024-01-01 00:00:02.850,0.288616,0.067134,9.057277,-0.17922,0.277441,-0.089002
2024-01-01 00:00:02.860,0.42171,-0.119326,8.527797,-0.071498,0.25332,-0.076788
2024-01-01 00:00:02.870,0.464129,-0.14837,8.383409,-0.111846,0.16082,-0.050661
2024-01-01 00:00:02.880,0.417121,-0.218402,8.173118,-0.167177,0.202632,-0.075431
2024-01-01 00:00:02.890,0.317074,-0.225701,7.68557,-0.158073,0.1732,-0.124723
2024-01-01 00:00:02.900,0.317534,-0.120913,7.585487,-0.268015,0.16257,-0.171102
2024-01-01 00:00:02.910,0.257524,-0.461992,7.848403,-0.246143,0.09978,-0.122141
2024-01-01 00:00:02.920,0.208584,-0.185831,7.828358,-0.366336,0.198396,-0.153855
2024-01-01 00:00:02.930,0.279018,-0.282078,8.052871,-0.288765,0.197349,-0.147291
2024-01-01 00:00:02.940,0.192076,-0.422638,8.141834,-0.228423,0.139742,-0.165878
2024-01-01 00:00:02.950,0.05834,-0.424654,8.835511,-0.388372,0.126733,-0.070313
2024-01-01 00:00:02.960,0.134461,-0.212497,9.065507,-0.384599,0.017487,-0.060154
2024-01-01 00:00:02.970,0.034954,-0.425548,9.53853,-0.385408,-0.026052,-0.004018
2024-01-01 00:00:02.980,0.023135,-0.440748,10.165831,-0.34198,-0.062204,-0.041173
2024-01-01 00:00:02.990,-0.043221,-0.251361,10.617232,-0.395498,-0.019792,0.066124
2024-01-01 00:00:03.000,-0.210344,-0.304505,11.110925,-0.310527,-0.06866,0.018032
2024-01-01 00:00:03.010,-0.237327,-0.391389,11.295252,-0.274013,-0.110813,0.148643
2024-01-01 00:00:03.020,-0.178618,-0.279517,11.930855,-0.27013,-0.067688,0.150454
2024-01-01 00:00:03.030,-0.232241,-0.355391,12.125378,-0.361751,-0.135903,0.137974
2024-01-01 00:00:03.040,-0.321615,-0.158057,11.717766,-0.196364,-0.219679,0.166873
2024-01-01 00:00:03.050,-0.345109,-0.130681,12.09184,-0.168722,-0.230987,0.116231
2024-01-01 00:00:03.060,-0.282046,-0.139587,11.643747,-0.140639,-0.179378,0.135489
2024-01-01 00:00:03.070,-0.45616,-0.117311,11.608855,-0.127602,-0.175044,0.137728
2024-01-01 00:00:03.080,-0.38412,0.03253,11.095097,-0.097356,-0.210132,-0.004508
2024-01-01 00:00:03.090,-0.457338,-0.069048,10.664995,-0.017404,-0.150246,0.044584
2024-01-01 00:00:03.100,-0.465894,-0.123299,10.142429,0.067427,-0.167405,0.023879
2024-01-01 00:00:03.110,-0.361837,0.047871,9.842136,-0.035738,-0.227803,-0.016094
2024-01-01 00:00:03.120,-0.378892,0.219299,8.97256,0.106321,-0.28911,-0.000708
2024-01-01 00:00:03.130,-0.369022,0.011028,8.782932,0.087898,-0.306667,-0.109961
2024-01-01 00:00:03.140,-0.312979,0.10184,8.450418,0.124274,-0.251267,-0.122597
2024-01-01 00:00:03.150,-0.393414,0.200855,8.068224,0.090713,-0.181836,-0.18356
2024-01-01 00:00:03.160,-0.312879,0.197747,8.084592,0.18782,-0.112798,-0.096108
2024-01-01 00:00:03.170,-0.359636,0.155266,7.543328,0.183987,-0.165136,-0.156525
2024-01-01 00:00:03.180,-0.271738,0.352232,7.770811,0.23929,-0.106937,-0.161979
2024-01-01 00:00:03.190,-0.26692,0.473174,7.733365,0.232662,-0.15477,-0.142078
2024-01-01 00:00:03.200,-0.204122,0.324466,8.1673,0.28633,-0.086574,-0.10553
2024-01-01 00:00:03.210,-0.11678,0.253484,8.312547,0.305503,-0.050162,-0.0916
2024-01-01 00:00:03.220,-0.180142,0.214526,8.66749,0.343281,-0.162693,0.005505
2024-01-01 00:00:03.230,0.103964,0.367144,9.391931,0.265768,-0.055909,-0.028244
2024-01-01 00:00:03.240,-0.091794,0.4382,9.625691,0.277613,0.0412,-0.021497
2024-01-01 00:00:03.250,-0.05618,0.386561,9.996875,0.366643,0.036476,0.010349
2024-01-01 00:00:03.260,0.185317,0.342306,10.619146,0.302626,-0.008343,0.048672
2024-01-01 00:00:03.270,0.206464,0.284682,11.229679,0.38555,-0.041989,0.04541
2024-01-01 00:00:03.280,0.24159,0.229295,11.714346,0.327931,0.088189,0.116801
2024-01-01 00:00:03.290,0.287869,0.364015,11.799641,0.327573,0.128421,0.158025
2024-01-01 00:00:03.300,0.279354,0.34689,12.15191,0.344323,0.111545,0.127793
2024-01-01 00:00:03.310,0.247499,0.122985,11.806223,0.231158,0.184532,0.125775
2024-01-01 00:00:03.320,0.359978,0.343355,11.880786,0.187443,0.221938,0.191202
2024-01-01 00:00:03.330,0.329595,0.228699,11.726248,0.226358,0.246739,0.09081
2024-01-01 00:00:03.340,0.486449,0.258877,11.469109,0.172385,0.109115,0.052258
2024-01-01 00:00:03.350,0.415831,0.001692,11.125418,0.099696,0.171839,0.05424
2024-01-01 00:00:03.360,0.374936,-0.039524,10.772809,0.139315,0.229755,0.012367
2024-01-01 00:00:03.370,0.42269,0.017562,10.112564,0.018867,0.27772,0.036765
2024-01-01 00:00:03.380,0.482805,0.029042,9.690369,-0.009542,0.274334,-0.0204
2024-01-01 00:00:03.390,0.399967,0.092019,9.16054,-0.050629,0.270852,-0.05041
2024-01-01 00:00:03.400,0.368572,-0.035015,8.560821,-0.138231,0.222135,-0.041114
2024-01-01 00:00:03.410,0.437263,-0.149491,8.274827,-0.126197,0.215712,-0.124248
2024-01-01 00:00:03.420,0.415142,-0.249005,7.944234,-0.097057,0.18333,-0.102489
2024-01-01 00:00:03.430,0.327423,-0.10306,7.714217,-0.179212,0.242842,-0.095866
2024-01-01 00:00:03.440,0.297761,-0.310481,7.628441,-0.231751,0.140333,-0.162737
2024-01-01 00:00:03.450,0.316942,-0.13172,7.637434,-0.270086,0.208267,-0.126793
2024-01-01 00:00:03.460,0.141436,-0.309903,7.681225,-0.270609,0.153328,-0.147977
2024-01-01 00:00:03.470,0.100116,-0.181182,8.168081,-0.270941,0.115922,-0.097242
2024-01-01 00:00:03.480,0.107795,-0.271226,8.131534,-0.295078,0.058981,-0.149625
2024-01-01 00:00:03.490,0.09852,-0.349215,8.609514,-0.354848,-0.003557,-0.123843
2024-01-01 00:00:03.500,0.089232,-0.387954,9.604168,-0.330163,0.003373,-0.054203
2024-01-01 00:00:03.510,0.130283,-0.377143,9.534521,-0.325873,-0.009692,-0.034835
2024-01-01 00:00:03.520,0.028597,-0.314348,9.996652,-0.398973,-0.140682,0.01107
2024-01-01 00:00:03.530,-0.104541,-0.336476,10.7984,-0.334237,-0.060838,0.053293
2024-01-01 00:00:03.540,-0.143758,-0.379561,10.817891,-0.440121,-0.032803,0.111564
2024-01-01 00:00:03.550,-0.271009,-0.33023,11.46436,-0.292853,-0.077643,0.102974
2024-01-01 00:00:03.560,-0.238281,-0.291335,12.100749,-0.264604,-0.156366,0.109526
2024-01-01 00:00:03.570,-0.302688,-0.444543,11.720358,-0.236867,-0.152984,0.135507
2024-01-01 00:00:03.580,-0.292797,-0.21051,11.712698,-0.266915,-0.204816,0.126925
2024-01-01 00:00:03.590,-0.419509,-0.295122,11.724565,-0.201292,-0.188857,0.117851
2024-01-01 00:00:03.600,-0.341727,-0.275664,11.908461,-0.1122,-0.135925,0.085499
2024-01-01 00:00:03.610,-0.285424,-0.282562,11.660965,-0.076886,-0.178266,0.116783
2024-01-01 00:00:03.620,-0.436001,-0.25327,11.043332,-0.111217,-0.211349,0.072272
2024-01-01 00:00:03.630,-0.40865,-0.178896,10.780133,-0.063494,-0.269526,0.088146
2024-01-01 00:00:03.640,-0.393109,-0.086932,10.396907,0.025335,-0.21157,-0.017624
2024-01-01 00:00:03.650,-0.481897,0.166708,9.946818,-0.064592,-0.334232,-0.025214
2024-01-01 00:00:03.660,-0.427276,0.008894,9.13918,0.034811,-0.259953,0.011169
2024-01-01 00:00:03.670,-0.433588,0.105013,8.362452,0.157572,-0.212256,-0.103347
2024-01-01 00:00:03.680,-0.410304,0.161434,8.17543,0.178156,-0.195267,-0.110149
2024-01-01 00:00:03.690,-0.457834,0.176736,7.906805,0.184714,-0.186502,-0.161874
2024-01-01 00:00:03.700,-0.36656,0.194665,7.703267,0.125569,-0.189992,-0.181445
2024-01-01 00:00:03.710,-0.296231,0.137134,7.596544,0.230262,-0.196493,-0.102577
2024-01-01 00:00:03.720,-0.182992,0.377585,7.792824,0.232015,-0.139259,-0.143847
2024-01-01 00:00:03.730,-0.181314,0.431308,7.93406,0.303284,-0.191007,-0.136929
2024-01-01 00:00:03.740,-0.041289,0.173469,7.94634,0.267614,-0.160869,-0.176201
2024-01-01 00:00:03.750,-0.227535,0.243348,8.46501,0.273984,-0.089217,-0.092176
2024-01-01 00:00:03.760,-0.046721,0.315681,8.763317,0.234823,-0.056066,-0.0403
2024-01-01 00:00:03.770,-0.050625,0.269133,9.188014,0.407386,-0.127555,-0.008584
2024-01-01 00:00:03.780,0.161987,0.390327,9.816998,0.329861,0.015426,0.011256
2024-01-01 00:00:03.790,-0.025587,0.290416,10.201477,0.356535,0.060346,-0.007932
2024-01-01 00:00:03.800,0.023645,0.516002,10.98844,0.342685,0.046593,0.068696
2024-01-01 00:00:03.810,0.093391,0.427531,10.906309,0.278916,0.197247,0.109487
2024-01-01 00:00:03.820,0.020041,0.334295,11.416457,0.254336,0.071383,0.060967
2024-01-01 00:00:03.830,0.193938,0.380166,11.755767,0.247741,0.113056,0.100322
2024-01-01 00:00:03.840,0.218125,0.363171,12.015896,0.238541,0.135167,0.172552
2024-01-01 00:00:03.850,0.329979,0.202566,12.200191,0.266012,0.172828,0.176281
2024-01-01 00:00:03.860,0.380086,0.152022,11.947912,0.177533,0.179534,0.099559
2024-01-01 00:00:03.870,0.532874,0.190273,11.564512,0.271347,0.142315,0.158022
2024-01-01 00:00:03.880,0.483679,0.21717,11.624552,0.199597,0.199142,0.117962
2024-01-01 00:00:03.890,0.380852,0.12158,11.240858,0.150873,0.232343,0.113268
2024-01-01 00:00:03.900,0.368723,-0.054981,10.394836,0.065195,0.306204,0.040699
2024-01-01 00:00:03.910,0.487592,-0.033285,10.196876,0.106655,0.359133,0.045772
2024-01-01 00:00:03.920,0.344208,-0.015633,9.449398,-0.020615,0.316677,0.016991
2024-01-01 00:00:03.930,0.591857,-0.056292,9.085266,-0.051802,0.208642,-0.053156
2024-01-01 00:00:03.940,0.529194,0.067719,8.580238,-0.081586,0.206787,-0.074082
2024-01-01 00:00:03.950,0.380931,-0.239593,8.426663,-0.093623,0.224514,-0.122051
2024-01-01 00:00:03.960,0.259389,-0.125158,7.993425,-0.13376,0.309472,-0.075503
2024-01-01 00:00:03.970,0.477371,-0.08113,7.552433,-0.224016,0.196763,-0.144385
2024-01-01 00:00:03.980,0.327534,-0.050493,7.757816,-0.258859,0.120679,-0.176583
2024-01-01 00:00:03.990,0.398812,-0.293375,7.408864,-0.229028,0.141489,-0.170525
2024-01-01 00:00:04.000,0.131273,-0.246997,7.789275,-0.250549,0.181646,-0.13735
2024-01-01 00:00:04.010,0.166423,-0.262152,7.844939,-0.327401,0.153593,-0.103056
2024-01-01 00:00:04.020,0.167442,-0.30936,8.238694,-0.404358,0.08278,-0.143469
2024-01-01 00:00:04.030,0.121175,-0.345783,8.777335,-0.348241,0.099402,-0.020136
2024-01-01 00:00:04.040,0.03022,-0.311311,9.247731,-0.315013,-0.076867,-0.034409
2024-01-01 00:00:04.050,0.063968,-0.552407,9.87236,-0.259556,0.013047,0.004572
2024-01-01 00:00:04.060,-0.123547,-0.294175,10.169218,-0.408639,0.021847,0.022418
2024-01-01 00:00:04.070,-0.101289,-0.33285,10.717261,-0.364273,-0.091587,0.059302
2024-01-01 00:00:04.080,-0.130823,-0.350315,11.048999,-0.351987,-0.119843,0.084506
2024-01-01 00:00:04.090,-0.147943,-0.153849,11.515084,-0.249808,-0.198377,0.144928
2024-01-01 00:00:04.100,-0.178265,-0.352385,11.836503,-0.300138,-0.051169,0.133438
2024-01-01 00:00:04.110,-0.368087,-0.307399,11.933074,-0.320519,-0.190516,0.168772
2024-01-01 00:00:04.120,-0.440009,-0.088875,11.739401,-0.220265,-0.164215,0.136982
2024-01-01 00:00:04.130,-0.249946,-0.284459,12.003384,-0.238126,-0.165448,0.152028
2024-01-01 00:00:04.140,-0.355698,-0.228655,11.836635,-0.245865,-0.136776,0.110334
2024-01-01 00:00:04.150,-0.467123,-0.160665,11.402045,-0.193542,-0.233942,0.152001
2024-01-01 00:00:04.160,-0.302613,-0.043892,10.942327,-0.024448,-0.26403,0.065327
2024-01-01 00:00:04.170,-0.43115,-0.055272,10.915945,-0.052686,-0.236015,0.050562
2024-01-01 00:00:04.180,-0.35381,-0.135081,10.280234,-0.026283,-0.18477,0.017586
2024-01-01 00:00:04.190,-0.44445,-0.033592,9.662762,-0.003513,-0.258426,-0.018315
2024-01-01 00:00:04.200,-0.280615,0.000925,9.023253,0.064121,-0.295229,-0.020338
2024-01-01 00:00:04.210,-0.294653,0.083198,8.600394,0.103388,-0.318749,-0.083568
2024-01-01 00:00:04.220,-0.438728,0.162099,8.5074,0.14264,-0.293738,-0.060318
2024-01-01 00:00:04.230,-0.31916,0.198415,8.001656,0.170701,-0.177272,-0.149258
2024-01-01 00:00:04.240,-0.31797,0.057576,7.665885,0.243097,-0.221364,-0.135477
2024-01-01 00:00:04.250,-0.227832,0.316775,7.703382,0.232815,-0.217777,-0.172119
2024-01-01 00:00:04.260,-0.377683,0.280739,7.500758,0.211637,-0.202737,-0.13649
2024-01-01 00:00:04.270,-0.204714,0.396651,7.961784,0.255268,-0.139969,-0.141843
2024-01-01 00:00:04.280,-0.130527,0.342919,8.164942,0.208432,-0.131529,-0.13065
2024-01-01 00:00:04.290,-0.308597,0.412832,8.216894,0.426067,-0.106933,-0.068195
2024-01-01 00:00:04.300,-0.212987,0.375007,8.599441,0.380821,0.001729,-0.095739
2024-01-01 00:00:04.310,-0.230296,0.453778,8.76798,0.304577,0.039591,-0.026675
2024-01-01 00:00:04.320,-0.036634,0.391583,9.440379,0.335711,-0.08888,-0.033118
2024-01-01 00:00:04.330,0.094601,0.340969,9.971547,0.316958,0.037045,0.028094
2024-01-01 00:00:04.340,0.209164,0.524885,10.683082,0.420218,0.010587,0.022278
2024-01-01 00:00:04.350,0.145478,0.403868,11.058291,0.261751,0.065116,0.068572
2024-01-01 00:00:04.360,0.318531,0.363805,11.280007,0.32363,0.120043,0.111523
2024-01-01 00:00:04.370,0.123982,0.196669,11.724207,0.293347,0.119581,0.187829
2024-01-01 00:00:04.380,0.141103,0.172541,12.021426,0.316947,0.165619,0.148635
2024-01-01 00:00:04.390,0.312167,0.272133,12.089067,0.243515,0.209543,0.199633
2024-01-01 00:00:04.400,0.382297,0.230109,11.670767,0.130557,0.210047,0.152909
2024-01-01 00:00:04.410,0.37917,0.136138,11.766781,0.172712,0.179761,0.123116
2024-01-01 00:00:04.420,0.241447,0.160845,11.302436,0.100958,0.194564,0.162086
2024-01-01 00:00:04.430,0.419275,0.238936,11.277591,0.115824,0.164906,0.103951
2024-01-01 00:00:04.440,0.335851,0.128246,10.820618,0.144323,0.201864,0.041604
2024-01-01 00:00:04.450,0.501641,-0.058879,10.080877,-0.05457,0.34703,0.04177
2024-01-01 00:00:04.460,0.479203,-0.017169,9.591424,-0.04826,0.21033,-0.015846
2024-01-01 00:00:04.470,0.370416,-0.113185,9.133472,-0.076422,0.18789,-0.10108
2024-01-01 00:00:04.480,0.394211,-0.119683,8.393773,-0.107748,0.257841,-0.045442
2024-01-01 00:00:04.490,0.334418,-0.160438,8.369171,-0.090343,0.227346,-0.068826
2024-01-01 00:00:04.500,0.392315,-0.202523,7.945219,-0.172989,0.210959,-0.069215
2024-01-01 00:00:04.510,0.446548,-0.299466,7.897236,-0.178265,0.276084,-0.127674
2024-01-01 00:00:04.520,0.259088,-0.241322,7.463328,-0.262398,0.215204,-0.156228
2024-01-01 00:00:04.530,0.341514,-0.304892,7.529071,-0.248547,0.140828,-0.124136
2024-01-01 00:00:04.540,0.217947,-0.519821,7.507614,-0.246575,0.123425,-0.116079
2024-01-01 00:00:04.550,0.152599,-0.142794,7.806393,-0.343647,0.094887,-0.07719
2024-01-01 00:00:04.560,0.16021,-0.23735,8.102945,-0.285384,0.137499,-0.105641
2024-01-01 00:00:04.570,0.036417,-0.367594,8.835203,-0.334871,0.050835,-0.081617
2024-01-01 00:00:04.580,0.023798,-0.344465,9.047158,-0.293697,-0.05183,-0.066337
2024-01-01 00:00:04.590,-0.079806,-0.44351,9.672046,-0.359849,0.006486,0.005448
2024-01-01 00:00:04.600,0.12092,-0.213204,10.106257,-0.3298,-0.096995,-0.022354
2024-01-01 00:00:04.610,-0.08523,-0.191451,10.463878,-0.345265,0.060294,0.080848
2024-01-01 00:00:04.620,-0.194632,-0.320436,11.074524,-0.337782,-0.125313,0.105574
2024-01-01 00:00:04.630,-0.170267,-0.236329,11.565666,-0.305265,-0.112196,0.131129
2024-01-01 00:00:04.640,-0.242571,-0.285131,11.580984,-0.272314,-0.116859,0.137248
2024-01-01 00:00:04.650,-0.294308,-0.382995,12.06476,-0.338535,-0.168117,0.191448
2024-01-01 00:00:04.660,-0.266807,-0.282177,11.882322,-0.177549,-0.190024,0.176145
2024-01-01 00:00:04.670,-0.290382,-0.208485,11.885286,-0.312023,-0.173899,0.128224
2024-01-01 00:00:04.680,-0.423726,-0.222253,11.869658,-0.22013,-0.135514,0.117328
2024-01-01 00:00:04.690,-0.452504,-0.167721,11.416259,-0.154943,-0.187424,0.089913
2024-01-01 00:00:04.700,-0.448107,-0.119852,11.155292,-0.091922,-0.162798,0.107879
2024-01-01 00:00:04.710,-0.624166,-0.079801,10.664209,0.005478,-0.296782,0.031456
2024-01-01 00:00:04.720,-0.569195,-0.028951,10.244043,-0.126046,-0.233009,0.060773
2024-01-01 00:00:04.730,-0.340546,-0.077333,9.358429,-0.017869,-0.24218,0.033249
2024-01-01 00:00:04.740,-0.31414,-0.0093,8.937076,-0.058281,-0.230077,-0.067175
2024-01-01 00:00:04.750,-0.455481,-0.014809,8.832132,0.089538,-0.173165,-0.078539
2024-01-01 00:00:04.760,-0.373373,0.204891,8.481144,0.14025,-0.244093,-0.100713
2024-01-01 00:00:04.770,-0.372871,-0.004788,7.854744,0.243203,-0.241259,-0.097482
2024-01-01 00:00:04.780,-0.124362,0.290738,7.718378,0.204483,-0.17923,-0.091835
2024-01-01 00:00:04.790,-0.249001,0.341466,7.673496,0.28276,-0.277003,-0.19925
2024-01-01 00:00:04.800,-0.312124,0.235378,7.724982,0.288744,-0.179559,-0.158795
2024-01-01 00:00:04.810,-0.337579,0.076789,7.426413,0.263278,-0.151786,-0.14976
2024-01-01 00:00:04.820,-0.345371,0.277774,7.819177,0.236231,-0.166493,-0.168696
2024-01-01 00:00:04.830,-0.153369,0.319041,8.223743,0.337926,-0.041395,-0.119306
2024-01-01 00:00:04.840,-0.180653,0.256447,8.783364,0.26269,-0.119859,-0.064356
2024-01-01 00:00:04.850,-0.182802,0.304641,9.517872,0.410619,-0.045139,-0.05383
2024-01-01 00:00:04.860,-0.068692,0.472167,9.610025,0.341648,0.005232,-0.057641
2024-01-01 00:00:04.870,-0.051205,0.402115,9.943223,0.408679,0.087294,0.109695
2024-01-01 00:00:04.880,0.222097,0.269412,10.706119,0.319367,0.047875,0.06497
2024-01-01 00:00:04.890,0.208288,0.205389,11.290439,0.346639,0.123339,0.09078
2024-01-01 00:00:04.900,0.18589,0.292355,11.485967,0.328984,0.138656,0.080228
2024-01-01 00:00:04.910,0.351174,0.282458,11.621882,0.297282,0.135494,0.140631
2024-01-01 00:00:04.920,0.282076,0.316203,12.084823,0.254874,0.098795,0.140377
2024-01-01 00:00:04.930,0.246365,0.20692,12.109162,0.269368,0.10342,0.093319
2024-01-01 00:00:04.940,0.472242,0.260531,11.8058,0.173303,0.199988,0.114464
2024-01-01 00:00:04.950,0.423897,0.341323,11.85127,0.126039,0.184412,0.159124
2024-01-01 00:00:04.960,0.323053,0.216131,11.671171,0.213033,0.271537,0.175019
2024-01-01 00:00:04.970,0.410572,0.109387,11.33424,0.149592,0.273848,0.102853
2024-01-01 00:00:04.980,0.369764,0.059396,10.709846,0.077342,0.23511,0.095125
2024-01-01 00:00:04.990,0.337265,0.005327,10.179976,0.117118,0.190942,0.024215
2024-01-01 00:00:05.000,0.52401,0.087669,9.908842,-0.020171,0.27549,-0.008409
2024-01-01 00:00:05.010,0.598619,-0.09752,9.03888,0.018801,0.196806,-0.00747
2024-01-01 00:00:05.020,0.323909,-0.08363,8.813587,-0.078469,0.204185,-0.022539
2024-01-01 00:00:05.030,0.464875,-0.121886,8.12688,-0.17722,0.184272,-0.061714
2024-01-01 00:00:05.040,0.346159,-0.203158,8.156326,-0.070613,0.214303,-0.155637
2024-01-01 00:00:05.050,0.332236,-0.307644,7.719585,-0.148311,0.264735,-0.141898
2024-01-01 00:00:05.060,0.291796,-0.204168,7.820813,-0.236057,0.188186,-0.140275
2024-01-01 00:00:05.070,0.23347,-0.26394,7.69381,-0.222701,0.145944,-0.157102
2024-01-01 00:00:05.080,0.265785,-0.244595,7.54409,-0.304799,0.069221,-0.130348
2024-01-01 00:00:05.090,0.151205,-0.349013,8.160857,-0.264868,0.14854,-0.102394
2024-01-01 00:00:05.100,0.192155,-0.226233,8.499732,-0.443453,0.055712,-0.075117
2024-01-01 00:00:05.110,0.117034,-0.40724,8.802342,-0.388088,0.073128,-0.027151
2024-01-01 00:00:05.120,0.050837,-0.208782,9.02009,-0.296782,0.021152,-0.055952
2024-01-01 00:00:05.130,-0.054697,-0.489534,9.589133,-0.362206,0.051858,-0.05285
2024-01-01 00:00:05.140,-0.08052,-0.314196,10.166976,-0.3386,-0.026961,0.033599
2024-01-01 00:00:05.150,-0.025769,-0.305484,10.531687,-0.410858,-0.050836,0.112917
2024-01-01 00:00:05.160,-0.096786,-0.397065,11.33864,-0.241027,-0.051745,0.072608
2024-01-01 00:00:05.170,-0.263873,-0.284868,11.485348,-0.259293,0.002198,0.133358
2024-01-01 00:00:05.180,-0.224025,-0.197552,11.348075,-0.309947,-0.084451,0.153389
2024-01-01 00:00:05.190,-0.21503,-0.454302,11.98972,-0.297191,-0.157286,0.15089
2024-01-01 00:00:05.200,-0.448147,-0.210039,11.957218,-0.198778,-0.174615,0.15017
2024-01-01 00:00:05.210,-0.306331,-0.419643,11.950414,-0.121058,-0.220576,0.119001
2024-01-01 00:00:05.220,-0.433291,-0.264384,11.742728,-0.139443,-0.258767,0.067097
2024-01-01 00:00:05.230,-0.359978,-0.021219,11.648414,-0.042962,-0.252985,0.083737
2024-01-01 00:00:05.240,-0.486553,-0.16047,11.332186,-0.160045,-0.274992,0.080625
2024-01-01 00:00:05.250,-0.584004,-0.168675,10.770657,-0.115734,-0.211561,0.095527
2024-01-01 00:00:05.260,-0.578,-0.050426,10.191833,-0.094038,-0.302336,0.02641
2024-01-01 00:00:05.270,-0.446086,0.171482,9.727763,0.028137,-0.183302,-0.020755
2024-01-01 00:00:05.280,-0.425214,-0.099927,9.23223,0.055388,-0.210171,-0.066323
2024-01-01 00:00:05.290,-0.508374,0.002432,8.635518,0.07894,-0.241213,-0.052168
2024-01-01 00:00:05.300,-0.369089,0.245092,8.426065,0.16576,-0.233415,-0.059529
2024-01-01 00:00:05.310,-0.53157,0.310982,8.070761,0.223982,-0.249336,-0.091386
2024-01-01 00:00:05.320,-0.377024,0.188967,7.992703,0.120958,-0.193017,-0.121477
2024-01-01 00:00:05.330,-0.436688,0.130329,7.820103,0.199604,-0.134377,-0.192782
2024-01-01 00:00:05.340,-0.355433,0.426233,7.516384,0.299573,-0.20365,-0.159921
2024-01-01 00:00:05.350,-0.258878,0.411742,7.847663,0.2608,-0.222597,-0.083766
2024-01-01 00:00:05.360,-0.287339,0.360285,7.799632,0.266059,-0.086231,-0.093686
2024-01-01 00:00:05.370,-0.202155,0.258628,8.364878,0.374547,-0.078999,-0.151774
2024-01-01 00:00:05.380,-0.041458,0.332978,8.584633,0.272425,-0.123766,-0.079932
2024-01-01 00:00:05.390,-0.117036,0.332802,8.972073,0.330551,-0.07605,-0.035773
2024-01-01 00:00:05.400,0.048005,0.376161,9.667854,0.366125,-0.053428,-0.035421
2024-01-01 00:00:05.410,-0.056938,0.465113,9.734863,0.320341,-0.01765,-0.047046
2024-01-01 00:00:05.420,0.12766,0.414012,10.366048,0.382816,0.031191,0.058785
2024-01-01 00:00:05.430,0.251286,0.247453,11.05064,0.305199,0.062206,0.062772
2024-01-01 00:00:05.440,-0.012922,0.429241,11.469971,0.389553,0.070132,0.088821
2024-01-01 00:00:05.450,0.167411,0.325341,11.693844,0.294003,0.090516,0.121581
2024-01-01 00:00:05.460,0.32056,0.332369,11.699556,0.310967,0.141002,0.140976
2024-01-01 00:00:05.470,0.297676,0.368094,11.886531,0.288072,0.182785,0.149674
2024-01-01 00:00:05.480,0.378898,0.131824,12.022237,0.189374,0.178188,0.120314
2024-01-01 00:00:05.490,0.331457,0.184884,11.889219,0.085076,0.26892,0.129209
2024-01-01 00:00:05.500,0.412144,0.109697,11.530671,0.170251,0.250525,0.064762
2024-01-01 00:00:05.510,0.412731,-0.010808,11.345011,0.118235,0.156672,0.10216
2024-01-01 00:00:05.520,0.532834,0.103217,10.796178,0.103272,0.270304,-0.022513
2024-01-01 00:00:05.530,0.468056,0.236245,10.139646,0.023994,0.279001,0.021436
2024-01-01 00:00:05.540,0.476956,-0.152522,9.701101,-0.026837,0.228234,0.023019
2024-01-01 00:00:05.550,0.413167,-0.048464,9.027757,0.054543,0.173083,-0.070767
2024-01-01 00:00:05.560,0.397252,-0.034583,8.747762,-0.159444,0.24277,-0.049826
2024-01-01 00:00:05.570,0.385908,-0.114766,8.51291,-0.087915,0.233233,-0.06514
2024-01-01 00:00:05.580,0.430641,-0.170766,8.109815,-0.190446,0.165632,-0.222167
2024-01-01 00:00:05.590,0.33859,-0.300572,7.97532,-0.213424,0.134255,-0.143971
2024-01-01 00:00:05.600,0.363606,-0.210276,7.587681,-0.244754,0.184747,-0.234697
2024-01-01 00:00:05.610,0.470014,-0.318612,7.820326,-0.298243,0.157225,-0.152973
2024-01-01 00:00:05.620,0.333124,-0.458952,7.692704,-0.255197,0.125489,-0.142599
2024-01-01 00:00:05.630,0.193247,-0.210046,8.158158,-0.236081,0.117679,-0.202152
2024-01-01 00:00:05.640,0.268359,-0.246669,8.250679,-0.29984,0.040562,-0.048349
2024-01-01 00:00:05.650,0.090222,-0.332568,8.760355,-0.331532,0.046519,-0.070219
2024-01-01 00:00:05.660,-0.091235,-0.327188,9.338073,-0.394836,0.066564,-0.072734
2024-01-01 00:00:05.670,-0.060855,-0.263716,9.587649,-0.32382,-0.006503,0.030779
2024-01-01 00:00:05.680,-0.182161,-0.331139,10.159687,-0.241269,-0.101653,-0.03226
2024-01-01 00:00:05.690,-0.11247,-0.271475,10.813461,-0.362831,-0.070495,0.018361
2024-01-01 00:00:05.700,-0.133588,-0.357662,11.049767,-0.352663,-0.128542,0.016906
2024-01-01 00:00:05.710,-0.049835,-0.214463,11.253348,-0.347476,-0.088837,0.165951
2024-01-01 00:00:05.720,-0.204199,-0.275004,12.066322,-0.325137,-0.112032,0.141893
2024-01-01 00:00:05.730,-0.291175,-0.262326,11.863625,-0.415115,-0.234965,0.164606
2024-01-01 00:00:05.740,-0.246891,-0.352887,12.032763,-0.23103,-0.136074,0.158958
2024-01-01 00:00:05.750,-0.525501,-0.198363,12.138822,-0.263597,-0.249282,0.164174
2024-01-01 00:00:05.760,-0.36042,-0.254925,11.714574,-0.268881,-0.132746,0.138423
2024-01-01 00:00:05.770,-0.343136,-0.203936,11.38764,-0.115214,-0.227331,0.126002
2024-01-01 00:00:05.780,-0.543162,-0.180543,11.216776,-0.169414,-0.298361,0.09655
2024-01-01 00:00:05.790,-0.347706,-0.161495,10.475959,-0.09313,-0.301103,0.045487
2024-01-01 00:00:05.800,-0.420527,0.133932,10.217605,0.037272,-0.231266,0.029337
2024-01-01 00:00:05.810,-0.483184,0.11109,9.789147,-0.065878,-0.269544,0.00428
2024-01-01 00:00:05.820,-0.395617,0.198783,9.206601,-0.031476,-0.252743,-0.035064
2024-01-01 00:00:05.830,-0.254835,-0.012716,8.540584,0.098581,-0.161856,-0.115099
2024-01-01 00:00:05.840,-0.406298,0.129627,8.592115,0.181401,-0.268766,-0.139691
2024-01-01 00:00:05.850,-0.379662,0.057585,8.02785,0.082348,-0.218957,-0.090084
2024-01-01 00:00:05.860,-0.409546,0.140373,7.983108,0.216413,-0.136117,-0.148407
2024-01-01 00:00:05.870,-0.409027,0.154893,7.595461,0.257394,-0.175941,-0.13079
2024-01-01 00:00:05.880,-0.238249,0.356742,7.485623,0.154617,-0.249595,-0.182244
2024-01-01 00:00:05.890,-0.332685,0.25163,7.759195,0.323253,-0.121507,-0.186775
2024-01-01 00:00:05.900,-0.214427,0.390725,7.90023,0.349085,-0.180457,-0.153313
2024-01-01 00:00:05.910,-0.211345,0.371389,8.070791,0.30747,-0.025844,-0.113214
2024-01-01 00:00:05.920,-0.085457,0.520791,8.866905,0.399117,-0.109907,-0.099288
2024-01-01 00:00:05.930,-0.046053,0.227041,9.014723,0.402219,0.108061,-0.009041
2024-01-01 00:00:05.940,0.062269,0.450367,9.331442,0.354784,0.06185,-0.008422
2024-01-01 00:00:05.950,-0.009244,0.440854,10.317029,0.326566,-0.022299,0.076455
2024-01-01 00:00:05.960,0.061833,0.266063,10.535909,0.295292,0.047347,0.066784
2024-01-01 00:00:05.970,0.055861,0.414654,10.970975,0.332205,0.112217,0.012997
2024-01-01 00:00:05.980,0.147545,0.346613,11.180522,0.348209,0.140899,0.143181
2024-01-01 00:00:05.990,0.259727,0.282843,12.001608,0.284832,0.149641,0.086336
2024-01-01 00:00:06.000,0.333457,0.212381,11.738248,0.168421,0.214218,0.151575
2024-01-01 00:00:06.010,0.238793,0.194263,12.017413,0.315227,0.167499,0.126667
2024-01-01 00:00:06.020,0.417582,0.385872,12.104142,0.231398,0.175005,0.211366
2024-01-01 00:00:06.030,0.487212,0.189041,11.872966,0.170005,0.19308,0.179532
2024-01-01 00:00:06.040,0.437468,0.216103,11.535558,0.19639,0.267581,0.096007
2024-01-01 00:00:06.050,0.574707,0.052733,10.930671,0.192237,0.254128,0.089992
2024-01-01 00:00:06.060,0.377097,0.014524,10.631798,-0.063184,0.258453,0.071651
2024-01-01 00:00:06.070,0.347936,0.123338,10.29798,0.058493,0.288378,0.057253
2024-01-01 00:00:06.080,0.307675,-0.111816,9.643531,-0.075182,0.147432,-0.002425
2024-01-01 00:00:06.090,0.566044,-0.077644,9.286514,-0.019471,0.263481,-0.068519
2024-01-01 00:00:06.100,0.489068,-0.081682,8.8825,-0.078007,0.25355,-0.091738
2024-01-01 00:00:06.110,0.416733,-0.114331,8.504284,-0.091455,0.317429,-0.099004
2024-01-01 00:00:06.120,0.422351,-0.174741,7.833722,-0.185376,0.145767,-0.085172
2024-01-01 00:00:06.130,0.283285,-0.163755,8.101385,-0.289082,0.285262,-0.126127
2024-01-01 00:00:06.140,0.537314,-0.172359,7.750978,-0.250306,0.193578,-0.17144
2024-01-01 00:00:06.150,0.315707,-0.198307,7.61662,-0.236736,0.194099,-0.13008
2024-01-01 00:00:06.160,0.273712,-0.361761,7.879404,-0.232128,0.230996,-0.154384
2024-01-01 00:00:06.170,0.279035,-0.327628,8.28262,-0.363487,0.150801,-0.101619
2024-01-01 00:00:06.180,0.212483,-0.227195,8.025171,-0.271423,0.116686,-0.031168
2024-01-01 00:00:06.190,0.142592,-0.264726,8.604834,-0.368691,0.081382,-0.090631
2024-01-01 00:00:06.200,0.010438,-0.455106,8.742569,-0.327155,0.016757,-0.024406
2024-01-01 00:00:06.210,0.059393,-0.321475,9.627202,-0.375088,0.010618,-0.036796
2024-01-01 00:00:06.220,0.119945,-0.507447,10.163482,-0.34008,-0.052785,0.016996
2024-01-01 00:00:06.230,0.025137,-0.340314,10.597087,-0.299474,-0.04806,0.054952
2024-01-01 00:00:06.240,-0.005807,-0.18248,10.956378,-0.395652,-0.190831,0.079046
2024-01-01 00:00:06.250,-0.223125,-0.39585,11.131722,-0.354014,-0.079785,0.184969
2024-01-01 00:00:06.260,-0.3079,-0.36816,11.792059,-0.292166,-0.13316,0.122122
2024-01-01 00:00:06.270,-0.28221,-0.217617,12.147529,-0.15866,-0.168003,0.162097
2024-01-01 00:00:06.280,-0.307429,-0.375724,11.91965,-0.29546,-0.162283,0.091982
2024-01-01 00:00:06.290,-0.25988,-0.273074,12.035047,-0.120447,-0.264687,0.160167
2024-01-01 00:00:06.300,-0.513648,-0.141887,11.578312,-0.089382,-0.113676,0.170866
2024-01-01 00:00:06.310,-0.281615,-0.204934,11.618744,-0.159057,-0.229571,0.102819
2024-01-01 00:00:06.320,-0.436891,-0.135575,11.134094,-0.131605,-0.242987,0.018996
2024-01-01 00:00:06.330,-0.472943,-0.018092,10.647214,-0.11223,-0.292043,0.063721
2024-01-01 00:00:06.340,-0.528377,-0.003785,10.164766,-0.040919,-0.247363,0.032481
2024-01-01 00:00:06.350,-0.582371,0.024462,9.711782,-0.06722,-0.180642,0.019051
2024-01-01 00:00:06.360,-0.380625,0.01657,9.322301,0.039887,-0.196248,0.023164
2024-01-01 00:00:06.370,-0.43108,0.113297,8.591569,0.158536,-0.200026,-0.081057
2024-01-01 00:00:06.380,-0.524708,0.112656,8.307286,0.092,-0.206853,-0.124085
2024-01-01 00:00:06.390,-0.503991,0.196386,8.01679,0.147726,-0.240363,-0.156848
2024-01-01 00:00:06.400,-0.400713,0.155057,7.610521,0.109754,-0.280203,-0.132782
2024-01-01 00:00:06.410,-0.208745,0.212625,7.906784,0.245933,-0.2002,-0.133759
2024-01-01 00:00:06.420,-0.326829,0.177383,7.488144,0.269804,-0.181828,-0.165949
2024-01-01 00:00:06.430,-0.385974,0.279664,7.612749,0.28565,-0.095184,-0.119606
2024-01-01 00:00:06.440,-0.241454,0.239655,7.776306,0.293693,-0.10775,-0.114694
2024-01-01 00:00:06.450,-0.196689,0.233368,8.504303,0.307854,-0.016535,-0.106121
2024-01-01 00:00:06.460,-0.341338,0.356786,8.713767,0.361189,-0.009896,-0.10747
2024-01-01 00:00:06.470,-0.078949,0.362176,8.950127,0.343715,-0.064272,-0.063505
2024-01-01 00:00:06.480,-0.041092,0.412188,9.755066,0.365306,-0.102322,-0.087952
2024-01-01 00:00:06.490,0.085373,0.314748,10.129642,0.359987,0.085766,0.026815
2024-01-01 00:00:06.500,0.229486,0.376846,10.632944,0.400373,0.113286,0.054269
2024-01-01 00:00:06.510,0.222486,0.378581,10.995274,0.368367,0.005223,0.089992
2024-01-01 00:00:06.520,0.159854,0.355897,11.320527,0.329958,0.17622,0.125785
2024-01-01 00:00:06.530,0.139397,0.235734,11.782222,0.377708,0.145728,0.14259
2024-01-01 00:00:06.540,0.477265,0.291132,11.844957,0.300196,0.15881,0.14101
2024-01-01 00:00:06.550,0.315944,0.281939,12.280435,0.318056,0.253632,0.151318
2024-01-01 00:00:06.560,0.347929,0.223594,11.780396,0.253366,0.259909,0.105197
2024-01-01 00:00:06.570,0.375809,0.0233,12.047747,0.098123,0.242422,0.119351
2024-01-01 00:00:06.580,0.419409,0.167688,11.539089,0.220091,0.247862,0.120545
2024-01-01 00:00:06.590,0.412386,0.294391,11.245121,0.124147,0.266339,0.072715
2024-01-01 00:00:06.600,0.392689,0.049539,10.894854,0.075744,0.223654,0.091251
2024-01-01 00:00:06.610,0.403558,-0.020009,10.193286,0.052305,0.245749,0.01282
2024-01-01 00:00:06.620,0.447369,0.027485,9.909678,-0.019632,0.204878,0.004447
2024-01-01 00:00:06.630,0.403121,-0.017981,8.86774,-0.03162,0.231457,-0.033057
2024-01-01 00:00:06.640,0.380142,0.012439,8.688569,-0.112574,0.224541,-0.046709
2024-01-01 00:00:06.650,0.430355,-0.222497,8.235215,-0.058154,0.202591,-0.070897
2024-01-01 00:00:06.660,0.380416,-0.100599,7.840377,-0.164788,0.229512,-0.100652
2024-01-01 00:00:06.670,0.494693,-0.146968,7.746658,-0.213331,0.191787,-0.201664
2024-01-01 00:00:06.680,0.130801,-0.238044,7.696613,-0.272918,0.2156,-0.112215
2024-01-01 00:00:06.690,0.394072,-0.228986,7.720897,-0.242642,0.089302,-0.103806
2024-01-01 00:00:06.700,0.366169,-0.199675,7.746525,-0.272676,0.142378,-0.157619
2024-01-01 00:00:06.710,0.056743,-0.234387,7.818476,-0.284751,0.130252,-0.121878
2024-01-01 00:00:06.720,0.148325,-0.413648,8.283463,-0.373569,0.082102,-0.134581
2024-01-01 00:00:06.730,0.096777,-0.270276,8.641702,-0.415947,0.061654,-0.139379
2024-01-01 00:00:06.740,-0.037065,-0.350209,9.222319,-0.313754,-0.037298,-0.071804
2024-01-01 00:00:06.750,-0.038666,-0.34369,9.696501,-0.275288,0.030912,-0.031889
2024-01-01 00:00:06.760,-0.117582,-0.34343,10.094968,-0.400603,0.016416,0.008472
2024-01-01 00:00:06.770,0.05954,-0.356354,10.451148,-0.264862,-0.020124,0.024124
2024-01-01 00:00:06.780,-0.056605,-0.239396,10.941369,-0.320537,-0.021097,0.061814
2024-01-01 00:00:06.790,-0.078777,-0.327307,11.344233,-0.320963,-0.090202,0.109899
2024-01-01 00:00:06.800,-0.169372,-0.391721,11.679761,-0.322035,-0.102236,0.107601
2024-01-01 00:00:06.810,-0.360967,-0.311107,11.964396,-0.34885,-0.142553,0.160455
2024-01-01 00:00:06.820,-0.352487,-0.239019,12.114778,-0.203928,-0.138136,0.170279
2024-01-01 00:00:06.830,-0.307064,-0.125247,11.964836,-0.262364,-0.271202,0.218855
2024-01-01 00:00:06.840,-0.474996,-0.142586,11.823498,-0.229824,-0.254249,0.170889
2024-01-01 00:00:06.850,-0.346104,-0.223549,11.582877,-0.10591,-0.144624,0.126705
2024-01-01 00:00:06.860,-0.442844,0.080737,11.130005,-0.212228,-0.358365,0.076669
2024-01-01 00:00:06.870,-0.468356,-0.057874,10.639357,-0.155236,-0.250548,0.074824
2024-01-01 00:00:06.880,-0.390326,0.063065,10.033502,-0.039873,-0.189832,0.04299
2024-01-01 00:00:06.890,-0.414454,-0.010487,9.684986,0.016314,-0.25466,-0.016814
2024-01-01 00:00:06.900,-0.475588,0.084913,9.353789,0.066481,-0.268423,-0.012432
2024-01-01 00:00:06.910,-0.344646,0.149425,8.699321,0.067177,-0.236525,-0.110482
2024-01-01 00:00:06.920,-0.508653,0.218635,8.345149,0.247698,-0.252194,-0.104776
2024-01-01 00:00:06.930,-0.351967,0.243045,8.103792,0.147061,-0.221369,-0.104427
2024-01-01 00:00:06.940,-0.327448,0.263367,7.860565,0.182052,-0.242445,-0.146869
2024-01-01 00:00:06.950,-0.368252,0.200906,7.478325,0.186263,-0.135393,-0.15414
2024-01-01 00:00:06.960,-0.28135,0.209841,7.764424,0.261776,-0.099637,-0.153802
2024-01-01 00:00:06.970,-0.367331,0.308205,7.876761,0.312344,-0.155137,-0.168409
2024-01-01 00:00:06.980,-0.149511,0.378459,7.744162,0.363988,-0.193454,-0.09408
2024-01-01 00:00:06.990,-0.1914,0.304101,8.098143,0.247455,-0.124307,-0.138833
2024-01-01 00:00:07.000,-0.169214,0.420895,8.793971,0.323382,-0.079975,-0.071912
2024-01-01 00:00:07.010,0.007456,0.461119,9.05119,0.367245,-0.017203,-0.037826
2024-01-01 00:00:07.020,-0.080848,0.276175,9.237828,0.378834,-0.064012,-0.044768
2024-01-01 00:00:07.030,-0.084882,0.282378,9.871299,0.349659,-0.023017,0.020688
2024-01-01 00:00:07.040,-0.044816,0.333235,10.539698,0.371586,0.06982,0.025014
2024-01-01 00:00:07.050,0.179038,0.359555,10.857199,0.294498,0.119477,0.125026
2024-01-01 00:00:07.060,0.077203,0.278938,11.358422,0.398798,0.068719,0.075639
2024-01-01 00:00:07.070,0.366675,0.410703,11.727371,0.352158,0.059057,0.110782
2024-01-01 00:00:07.080,0.103335,0.31399,12.140959,0.212818,0.314144,0.107247
2024-01-01 00:00:07.090,0.445559,0.256976,11.963475,0.200065,0.2113,0.109067
2024-01-01 00:00:07.100,0.362492,0.109275,12.13506,0.171802,0.178656,0.195294
2024-01-01 00:00:07.110,0.368974,0.086183,12.039113,0.225347,0.252736,0.153656
2024-01-01 00:00:07.120,0.359131,0.178644,11.782091,0.091926,0.217513,0.124
2024-01-01 00:00:07.130,0.45523,-0.051839,11.257211,0.102217,0.278524,0.076064
2024-01-01 00:00:07.140,0.435146,0.160781,10.491942,0.102506,0.25139,0.093804
2024-01-01 00:00:07.150,0.535361,0.027043,10.374927,0.036387,0.252951,0.009078
2024-01-01 00:00:07.160,0.459137,0.258531,9.955737,0.012028,0.24432,0.023024
2024-01-01 00:00:07.170,0.458847,0.143117,9.279611,-0.094806,0.175866,-0.061509
2024-01-01 00:00:07.180,0.408524,-0.09607,9.074654,-0.051812,0.340023,-0.087315
2024-01-01 00:00:07.190,0.417938,-0.128998,8.516816,-0.151152,0.187642,-0.074217
2024-01-01 00:00:07.200,0.426292,-0.078155,8.124523,-0.174032,0.155147,-0.094816
2024-01-01 00:00:07.210,0.238603,-0.056726,7.949014,-0.181093,0.197922,-0.120072
2024-01-01 00:00:07.220,0.236242,-0.356595,7.691803,-0.220399,0.143091,-0.179322
2024-01-01 00:00:07.230,0.36759,-0.397989,7.24035,-0.25388,0.168597,-0.163111
2024-01-01 00:00:07.240,0.281669,-0.330923,7.630091,-0.318692,0.183277,-0.138818
2024-01-01 00:00:07.250,0.209532,-0.256825,8.088558,-0.318422,0.174349,-0.155093
2024-01-01 00:00:07.260,0.178949,-0.281881,8.094215,-0.321521,0.139333,-0.067597
2024-01-01 00:00:07.270,0.156107,-0.249891,8.574056,-0.404227,0.055996,-0.154042
2024-01-01 00:00:07.280,0.034213,-0.440761,8.907813,-0.367911,0.045476,-0.074189
2024-01-01 00:00:07.290,-0.036823,-0.534732,9.829222,-0.330056,0.034528,-0.032221
2024-01-01 00:00:07.300,-0.011186,-0.280735,10.324325,-0.413248,-0.102808,-0.067448
2024-01-01 00:00:07.310,-0.157056,-0.41085,10.435876,-0.286765,-0.015241,0.009826
2024-01-01 00:00:07.320,-0.096995,-0.496637,11.046073,-0.271677,-0.144896,0.10153
2024-01-01 00:00:07.330,-0.314979,-0.30959,11.312067,-0.383453,0.002699,0.110282
2024-01-01 00:00:07.340,-0.143144,-0.239441,11.810181,-0.235014,-0.14549,0.177281
2024-01-01 00:00:07.350,-0.231327,-0.290268,11.995468,-0.287683,-0.158763,0.190153
2024-01-01 00:00:07.360,-0.288675,-0.290952,12.128302,-0.233399,-0.21024,0.162756
2024-01-01 00:00:07.370,-0.266391,-0.237459,12.025605,-0.249543,-0.223169,0.157066
2024-01-01 00:00:07.380,-0.242957,-0.221708,12.268794,-0.145909,-0.095292,0.139602
2024-01-01 00:00:07.390,-0.321153,-0.264663,11.418288,-0.136514,-0.176483,0.040516
2024-01-01 00:00:07.400,-0.570248,-0.176633,10.964991,-0.160166,-0.312448,0.054407
2024-01-01 00:00:07.410,-0.540307,-0.038782,10.735724,-0.138744,-0.16809,0.070158
2024-01-01 00:00:07.420,-0.496974,-0.014689,10.079582,-0.113439,-0.188665,0.052898
2024-01-01 00:00:07.430,-0.447913,0.013628,9.583826,0.00958,-0.264061,0.008533
2024-01-01 00:00:07.440,-0.405521,-0.038824,9.150538,0.069411,-0.232962,-0.061497
2024-01-01 00:00:07.450,-0.495891,0.066321,8.682864,0.113389,-0.243987,-0.039296
2024-01-01 00:00:07.460,-0.407876,-0.054362,8.251694,0.113904,-0.136269,-0.052012
2024-01-01 00:00:07.470,-0.462522,0.171425,8.122501,0.099297,-0.263199,-0.092217
2024-01-01 00:00:07.480,-0.424857,0.306676,7.71376,0.158264,-0.201553,-0.108061
2024-01-01 00:00:07.490,-0.457236,0.107061,7.616451,0.282609,-0.212909,-0.164501
2024-01-01 00:00:07.500,-0.382674,0.207702,7.747852,0.230345,-0.243216,-0.117469
2024-01-01 00:00:07.510,-0.376891,0.307051,7.587352,0.287894,-0.039727,-0.139334
2024-01-01 00:00:07.520,-0.303138,0.403306,7.864678,0.249296,-0.184116,-0.114583
2024-01-01 00:00:07.530,-0.094049,0.285483,8.263881,0.33817,-0.088071,-0.098195
2024-01-01 00:00:07.540,-0.205156,0.279883,8.308633,0.312379,-0.158815,-0.086154
2024-01-01 00:00:07.550,0.132268,0.187144,8.698136,0.396994,-0.063466,-0.077218
2024-01-01 00:00:07.560,0.013082,0.357673,9.604394,0.388076,0.006441,-0.020023
2024-01-01 00:00:07.570,0.040699,0.512785,10.136748,0.324634,-0.026841,0.046849
2024-01-01 00:00:07.580,0.009189,0.36691,10.86943,0.338388,0.072595,0.037878
2024-01-01 00:00:07.590,0.184777,0.333586,11.039994,0.307812,0.058077,0.109047
2024-01-01 00:00:07.600,0.131856,0.347252,11.530779,0.250514,0.156841,0.131054
2024-01-01 00:00:07.610,0.23442,0.302374,11.684012,0.260389,0.192899,0.120805
2024-01-01 00:00:07.620,0.473185,0.215901,11.960958,0.290853,0.119762,0.18528
2024-01-01 00:00:07.630,0.300787,0.32069,12.256099,0.271091,0.17521,0.139062
2024-01-01 00:00:07.640,0.436342,0.243333,11.658818,0.232699,0.200506,0.193065
2024-01-01 00:00:07.650,0.319423,0.194083,11.894174,0.177587,0.239677,0.150896
2024-01-01 00:00:07.660,0.399081,0.079445,11.898317,0.204127,0.223986,0.120068
2024-01-01 00:00:07.670,0.564319,0.224428,11.270944,0.123324,0.244319,0.070091
2024-01-01 00:00:07.680,0.387565,0.134374,11.050508,0.11636,0.231009,0.065051
2024-01-01 00:00:07.690,0.591875,-0.003082,10.229366,-0.047537,0.254028,0.028915
2024-01-01 00:00:07.700,0.50662,0.080696,9.812107,-0.19557,0.314897,-0.037277
2024-01-01 00:00:07.710,0.402045,-0.079865,9.314736,-0.02587,0.280661,-0.040639
2024-01-01 00:00:07.720,0.488641,-0.142688,8.496798,-0.151366,0.278423,-0.090971
2024-01-01 00:00:07.730,0.500943,-0.17989,8.226731,-0.129736,0.271231,-0.078423
2024-01-01 00:00:07.740,0.452259,-0.298176,7.885754,-0.171596,0.215928,-0.080792
2024-01-01 00:00:07.750,0.250835,-0.154031,7.916665,-0.112385,0.225082,-0.174306
2024-01-01 00:00:07.760,0.287137,-0.370921,7.77582,-0.204429,0.137579,-0.096245
2024-01-01 00:00:07.770,0.289699,-0.352348,7.661806,-0.245779,0.235385,-0.153638
2024-01-01 00:00:07.780,0.263557,-0.446331,7.823292,-0.238435,0.010581,-0.173136
2024-01-01 00:00:07.790,0.275538,-0.309596,7.875148,-0.284286,0.121134,-0.10751
2024-01-01 00:00:07.800,0.193421,-0.333075,8.382998,-0.343933,0.156603,-0.122982
2024-01-01 00:00:07.810,0.023279,-0.361188,8.593499,-0.281478,0.004088,-0.085485
2024-01-01 00:00:07.820,0.109666,-0.427936,9.055898,-0.400017,0.064017,-0.064136
2024-01-01 00:00:07.830,0.076171,-0.443133,9.503485,-0.333192,-0.018858,-0.042685
2024-01-01 00:00:07.840,0.019812,-0.312311,10.156454,-0.426839,-0.032313,0.038342
2024-01-01 00:00:07.850,0.009533,-0.388892,10.487944,-0.33465,0.004559,0.041942
2024-01-01 00:00:07.860,-0.061135,-0.310269,11.155025,-0.325928,-0.061124,0.03862
2024-01-01 00:00:07.870,-0.140306,-0.392595,11.231645,-0.237952,-0.200074,0.125041
2024-01-01 00:00:07.880,-0.229456,-0.289142,11.543855,-0.381876,-0.173178,0.093289
2024-01-01 00:00:07.890,-0.400498,-0.177116,12.016808,-0.311423,-0.099911,0.108836
2024-01-01 00:00:07.900,-0.273415,-0.208436,11.992154,-0.214196,-0.148544,0.185467
2024-01-01 00:00:07.910,-0.327177,-0.258826,11.910895,-0.209067,-0.103589,0.111995
2024-01-01 00:00:07.920,-0.353431,-0.17271,11.969254,-0.184271,-0.124288,0.068626
2024-01-01 00:00:07.930,-0.503595,-0.177382,11.49236,-0.205935,-0.240143,0.139603
2024-01-01 00:00:07.940,-0.508815,-0.120205,11.205642,-0.150377,-0.109466,0.088089
2024-01-01 00:00:07.950,-0.353251,-0.10796,11.021024,-0.019659,-0.241833,0.06173
2024-01-01 00:00:07.960,-0.449931,-0.055027,10.563578,-0.044455,-0.296337,0.026204
2024-01-01 00:00:07.970,-0.395477,0.015684,10.061992,0.017485,-0.28168,0.00805
2024-01-01 00:00:07.980,-0.444884,-0.040138,9.27637,0.033571,-0.361253,-0.05608
2024-01-01 00:00:07.990,-0.435883,-0.001857,9.022302,0.020259,-0.163129,-0.02201
2024-01-01 00:00:08.000,-0.348396,0.00734,8.26671,0.165114,-0.155517,-0.139806
2024-01-01 00:00:08.010,-0.444218,0.027813,7.919798,0.180996,-0.274628,-0.106256
2024-01-01 00:00:08.020,-0.369279,0.093758,7.444488,0.306423,-0.220821,-0.117983
2024-01-01 00:00:08.030,-0.382894,0.236623,7.897584,0.173087,-0.187393,-0.17029
2024-01-01 00:00:08.040,-0.344944,0.182144,7.483126,0.294696,-0.220342,-0.180526
2024-01-01 00:00:08.050,-0.295,0.320934,7.678111,0.214267,-0.237903,-0.113547
2024-01-01 00:00:08.060,-0.208928,0.305119,7.758666,0.310209,-0.136462,-0.160279
2024-01-01 00:00:08.070,-0.21837,0.163276,8.300703,0.369582,-0.116093,-0.128216
2024-01-01 00:00:08.080,-0.030548,0.387237,8.528169,0.231232,-0.092203,-0.056937
2024-01-01 00:00:08.090,-0.151747,0.409264,8.842856,0.334153,-0.033408,-0.051555
2024-01-01 00:00:08.100,-0.043215,0.2698,9.600425,0.321148,0.055773,-0.072721
2024-01-01 00:00:08.110,-0.011149,0.383116,9.829563,0.314403,-0.001805,0.068409
2024-01-01 00:00:08.120,0.191758,0.276452,10.416827,0.364233,0.050744,0.034039
2024-01-01 00:00:08.130,0.142668,0.343599,10.684786,0.391819,0.106868,0.06911
2024-01-01 00:00:08.140,0.258721,0.220903,11.181495,0.315399,0.125581,0.115748
2024-01-01 00:00:08.150,0.104179,0.160543,11.730799,0.314265,0.093181,0.14789
2024-01-01 00:00:08.160,0.288226,0.251188,11.616298,0.287529,0.153076,0.202082
2024-01-01 00:00:08.170,0.378267,0.245932,11.782651,0.255921,0.197986,0.099845
2024-01-01 00:00:08.180,0.349766,0.194578,11.980146,0.171925,0.13424,0.172767
2024-01-01 00:00:08.190,0.459874,0.099174,11.757782,0.249319,0.271308,0.160653
2024-01-01 00:00:08.200,0.359645,0.12679,11.887694,0.173542,0.294373,0.117173
2024-01-01 00:00:08.210,0.534752,0.143067,11.517765,0.141268,0.198308,0.121301
2024-01-01 00:00:08.220,0.621193,0.079032,10.689151,0.042298,0.252618,0.096847
2024-01-01 00:00:08.230,0.417626,0.057208,10.425227,0.019647,0.280255,-0.00521
2024-01-01 00:00:08.240,0.414352,-0.051593,9.947742,-0.00679,0.222715,0.054221
2024-01-01 00:00:08.250,0.563525,0.055135,9.238057,-0.115308,0.272556,-0.079648
2024-01-01 00:00:08.260,0.564842,-0.172793,8.621644,-0.163101,0.251761,-0.099788
2024-01-01 00:00:08.270,0.381948,-0.078729,8.414328,-0.147771,0.162036,-0.102887
2024-01-01 00:00:08.280,0.369739,-0.060626,8.035486,-0.129052,0.247043,-0.061474
2024-01-01 00:00:08.290,0.35494,-0.152054,7.735429,-0.223183,0.154706,-0.146239
2024-01-01 00:00:08.300,0.238958,-0.239504,7.714696,-0.274242,0.239468,-0.148343
2024-01-01 00:00:08.310,0.237374,-0.295325,7.499674,-0.293796,0.139143,-0.106882
2024-01-01 00:00:08.320,0.190688,-0.196516,7.521741,-0.302171,0.142502,-0.153245
2024-01-01 00:00:08.330,0.166089,-0.41581,7.907054,-0.319665,0.19501,-0.166215
2024-01-01 00:00:08.340,0.178159,-0.398072,8.248071,-0.212186,0.125338,-0.12296
2024-01-01 00:00:08.350,0.150648,-0.36643,8.400372,-0.281894,0.01931,-0.042953
2024-01-01 00:00:08.360,0.205146,-0.245256,9.169166,-0.29303,-0.005687,-0.051059
2024-01-01 00:00:08.370,-0.050662,-0.318881,9.25946,-0.290833,-0.01374,0.03849
2024-01-01 00:00:08.380,0.055658,-0.426983,9.948738,-0.39948,0.006905,0.03751
2024-01-01 00:00:08.390,-0.09219,-0.36992,10.495037,-0.406214,-0.023791,0.030002
2024-01-01 00:00:08.400,-0.129996,-0.385137,10.897624,-0.391335,-0.112177,0.082195
2024-01-01 00:00:08.410,-0.12132,-0.379132,11.303923,-0.255624,-0.155753,0.082041
2024-01-01 00:00:08.420,-0.312022,-0.226043,11.979974,-0.331713,-0.109368,0.108764
2024-01-01 00:00:08.430,-0.23551,-0.391988,11.780593,-0.344816,-0.156928,0.277433
2024-01-01 00:00:08.440,-0.293091,-0.127628,12.370355,-0.27788,-0.062365,0.180161
2024-01-01 00:00:08.450,-0.303177,-0.160693,12.047556,-0.238881,-0.188488,0.173923
2024-01-01 00:00:08.460,-0.350979,-0.107238,11.856674,-0.181086,-0.117127,0.119909
2024-01-01 00:00:08.470,-0.204175,-0.196471,11.665733,-0.146888,-0.281074,0.168744
2024-01-01 00:00:08.480,-0.472695,-0.134206,11.629153,-0.16362,-0.312925,0.131141
2024-01-01 00:00:08.490,-0.479538,-0.197988,10.678483,-0.049053,-0.298814,0.125825
2024-01-01 00:00:08.500,-0.496389,-0.085308,10.182534,-0.075295,-0.18862,0.091852
2024-01-01 00:00:08.510,-0.494424,0.036743,9.731338,-0.010564,-0.162187,-0.042016
2024-01-01 00:00:08.520,-0.498349,0.141558,9.341498,0.072212,-0.287641,-0.065567
2024-01-01 00:00:08.530,-0.343566,-0.010588,8.595404,0.045893,-0.266744,-0.095277
2024-01-01 00:00:08.540,-0.310453,0.087802,8.426668,0.088575,-0.294056,-0.122865
2024-01-01 00:00:08.550,-0.44943,0.142416,8.321054,0.184104,-0.314899,-0.109136
2024-01-01 00:00:08.560,-0.444584,0.078248,7.827278,0.147024,-0.174077,-0.153738
2024-01-01 00:00:08.570,-0.309402,0.270045,7.606179,0.203497,-0.181691,-0.085089
2024-01-01 00:00:08.580,-0.355725,0.194635,7.519159,0.280341,-0.172557,-0.092731
2024-01-01 00:00:08.590,-0.221137,0.26333,7.826805,0.381666,-0.220987,-0.144601
2024-01-01 00:00:08.600,-0.212092,0.265445,7.762328,0.331871,-0.04485,-0.072508
2024-01-01 00:00:08.610,-0.303056,0.25702,8.460911,0.343799,-0.126166,-0.066223
2024-01-01 00:00:08.620,-0.009011,0.333846,8.859249,0.360949,-0.047103,-0.098118
2024-01-01 00:00:08.630,0.061637,0.326887,9.059852,0.290476,-0.118302,-0.114049
2024-01-01 00:00:08.640,-0.07917,0.319465,9.514167,0.354994,-0.026274,-0.026592
2024-01-01 00:00:08.650,-0.008869,0.291299,10.180882,0.348088,0.026872,-0.004592
2024-01-01 00:00:08.660,0.09701,0.370779,10.689247,0.361296,0.057543,0.054947
2024-01-01 00:00:08.670,0.151891,0.468485,10.864377,0.342021,0.077251,0.082809
2024-01-01 00:00:08.680,0.227121,0.333825,11.303265,0.341619,0.121636,0.109089
2024-01-01 00:00:08.690,0.382201,0.384405,11.496221,0.289142,0.066465,0.144204
2024-01-01 00:00:08.700,0.251186,0.171463,11.966795,0.285612,0.157281,0.106495
2024-01-01 00:00:08.710,0.241852,0.26945,12.103476,0.195438,0.17553,0.161896
2024-01-01 00:00:08.720,0.231615,0.139719,11.780946,0.211514,0.201562,0.135
2024-01-01 00:00:08.730,0.315113,0.076962,11.778092,0.264658,0.211166,0.144843
2024-01-01 00:00:08.740,0.397519,0.100938,11.397586,0.176028,0.158655,0.150746
2024-01-01 00:00:08.750,0.564911,0.21825,11.121802,0.121852,0.168191,0.061901
2024-01-01 00:00:08.760,0.395424,0.160049,10.918338,0.178854,0.131971,0.061494
2024-01-01 00:00:08.770,0.464323,0.063503,10.249506,-0.023979,0.288888,0.033912
2024-01-01 00:00:08.780,0.448664,-0.119133,9.808661,-0.05199,0.29137,-0.012443
2024-01-01 00:00:08.790,0.54253,-0.052846,9.101587,0.048492,0.290766,-0.004663
2024-01-01 00:00:08.800,0.641051,-0.053133,8.890629,-0.074971,0.259171,-0.086208
2024-01-01 00:00:08.810,0.381938,-0.102308,8.423845,-0.12848,0.129126,-0.11072
2024-01-01 00:00:08.820,0.365031,-0.301365,7.963318,-0.213822,0.173212,-0.139752
2024-01-01 00:00:08.830,0.462039,-0.26052,7.780023,-0.16691,0.218802,-0.103713
2024-01-01 00:00:08.840,0.402266,-0.227297,7.678896,-0.194947,0.199951,-0.16192
2024-01-01 00:00:08.850,0.459963,-0.209143,7.489291,-0.306771,0.162322,-0.136095
2024-01-01 00:00:08.860,0.319237,-0.454208,7.468114,-0.285532,0.169847,-0.085305
2024-01-01 00:00:08.870,0.200394,-0.314198,8.152584,-0.318004,0.127881,-0.133716
2024-01-01 00:00:08.880,0.229911,-0.308426,8.082766,-0.307071,0.107515,-0.077927
2024-01-01 00:00:08.890,0.222408,-0.266223,8.54713,-0.390155,0.042331,-0.034975
2024-01-01 00:00:08.900,0.148598,-0.288572,9.164367,-0.281404,0.095189,-0.023543
2024-01-01 00:00:08.910,0.071669,-0.302558,10.036119,-0.303373,-0.004268,-0.021179
2024-01-01 00:00:08.920,0.064129,-0.413606,9.830434,-0.36777,-0.078313,0.033384
2024-01-01 00:00:08.930,0.020333,-0.497977,10.583777,-0.356158,-0.079223,0.009536
2024-01-01 00:00:08.940,-0.013655,-0.367843,10.871339,-0.34322,-0.086439,0.056199
2024-01-01 00:00:08.950,-0.121671,-0.242787,11.294968,-0.361833,-0.046726,0.088618
2024-01-01 00:00:08.960,-0.233932,-0.193599,11.581769,-0.327247,-0.124648,0.195387
2024-01-01 00:00:08.970,-0.252843,-0.226269,11.733761,-0.296626,-0.156296,0.1183
2024-01-01 00:00:08.980,-0.208502,-0.22298,11.99656,-0.176683,-0.23189,0.124682
2024-01-01 00:00:08.990,-0.406702,-0.197694,11.763668,-0.180735,-0.150363,0.116967
2024-01-01 00:00:09.000,-0.343567,-0.240214,11.991864,-0.148992,-0.239854,0.155875
2024-01-01 00:00:09.010,-0.431204,-0.171144,11.61327,-0.142243,-0.227077,0.126666
2024-01-01 00:00:09.020,-0.418714,0.009941,11.32692,-0.17945,-0.159887,0.131709
2024-01-01 00:00:09.030,-0.334329,-0.160164,10.773904,-0.086834,-0.21712,0.090626
2024-01-01 00:00:09.040,-0.431012,0.084392,10.313369,0.003734,-0.329357,-0.003336
2024-01-01 00:00:09.050,-0.446252,-0.029979,9.906135,-0.06713,-0.338457,-0.020605
2024-01-01 00:00:09.060,-0.556346,0.142449,9.180091,0.068242,-0.251859,0.009917
2024-01-01 00:00:09.070,-0.379404,-0.035991,8.81721,0.192685,-0.304584,-0.070128
2024-01-01 00:00:09.080,-0.373081,0.162532,8.308737,0.16875,-0.203528,-0.05794
2024-01-01 00:00:09.090,-0.231539,0.094261,7.944748,0.223904,-0.222664,-0.122559
2024-01-01 00:00:09.100,-0.403637,0.075456,7.495742,0.199594,-0.202295,-0.165242
2024-01-01 00:00:09.110,-0.33078,0.239086,7.854559,0.27,-0.228844,-0.156121
2024-01-01 00:00:09.120,-0.292954,0.332295,7.508217,0.215644,-0.086767,-0.17896
2024-01-01 00:00:09.130,-0.147076,0.210478,7.861622,0.317866,-0.009688,-0.161709
2024-01-01 00:00:09.140,-0.237572,0.180933,8.037646,0.333573,-0.141678,-0.125745
2024-01-01 00:00:09.150,-0.161198,0.312224,7.978691,0.334067,-0.084303,-0.096362
2024-01-01 00:00:09.160,-0.08598,0.326979,8.390803,0.399774,-0.069913,-0.133338
2024-01-01 00:00:09.170,-0.068958,0.387731,9.388231,0.316926,-0.059588,-0.055465
2024-01-01 00:00:09.180,-0.067743,0.42508,9.760272,0.33976,-0.059397,-0.038896
2024-01-01 00:00:09.190,0.03579,0.344892,10.0032,0.354418,-0.042991,-0.005957
2024-01-01 00:00:09.200,0.158171,0.493896,10.546172,0.293975,-0.016624,0.051542
2024-01-01 00:00:09.210,0.0412,0.354539,10.875022,0.347947,0.088774,0.062553
2024-01-01 00:00:09.220,0.183335,0.295486,11.43415,0.237253,0.069959,0.14778
2024-01-01 00:00:09.230,0.163731,0.176509,11.577418,0.357782,-0.006836,0.163482
2024-01-01 00:00:09.240,0.35942,0.262531,11.594893,0.285875,0.168808,0.177938
2024-01-01 00:00:09.250,0.182474,0.230912,11.803754,0.231779,0.167159,0.134606
2024-01-01 00:00:09.260,0.296018,0.305446,11.989379,0.186903,0.256629,0.119503
2024-01-01 00:00:09.270,0.40271,0.23333,11.683618,0.184603,0.225619,0.141775
2024-01-01 00:00:09.280,0.524545,0.067041,11.600242,0.195804,0.147901,0.11824
2024-01-01 00:00:09.290,0.41542,0.13805,11.109262,0.151657,0.122227,0.081312
2024-01-01 00:00:09.300,0.39196,0.139193,10.734607,0.050194,0.206457,0.035771
2024-01-01 00:00:09.310,0.596671,0.16776,10.505336,0.003216,0.216621,0.037438
2024-01-01 00:00:09.320,0.334114,0.07595,9.909338,0.037794,0.297133,-0.00788
2024-01-01 00:00:09.330,0.27175,0.025182,9.362272,-0.071803,0.248254,-0.009778
2024-01-01 00:00:09.340,0.47451,-0.071031,9.011098,-0.072843,0.300745,-0.043507
2024-01-01 00:00:09.350,0.384866,-0.083902,8.516987,-0.108779,0.169886,-0.060051
2024-01-01 00:00:09.360,0.323313,-0.052583,8.301019,-0.13694,0.27327,-0.155458
2024-01-01 00:00:09.370,0.436191,-0.294681,7.747117,-0.145146,0.246895,-0.123916
2024-01-01 00:00:09.380,0.368412,-0.24899,7.591061,-0.284183,0.092926,-0.168721
2024-01-01 00:00:09.390,0.268456,-0.312832,7.415746,-0.346584,0.240343,-0.18655
2024-01-01 00:00:09.400,0.171596,-0.247295,7.620368,-0.306,0.156907,-0.157764
2024-01-01 00:00:09.410,0.300555,-0.202061,8.017655,-0.210402,0.147801,-0.100011
2024-01-01 00:00:09.420,0.236396,-0.36703,8.360451,-0.218163,0.059188,-0.123298
2024-01-01 00:00:09.430,0.127577,-0.524978,8.690553,-0.242195,0.139046,-0.039184
2024-01-01 00:00:09.440,0.232543,-0.376705,8.726457,-0.353377,-0.012175,-0.039062
2024-01-01 00:00:09.450,-0.052639,-0.275982,9.650983,-0.438165,0.05992,-0.033742
2024-01-01 00:00:09.460,-0.141363,-0.306667,9.722967,-0.466829,0.030296,0.04767
2024-01-01 00:00:09.470,-0.126702,-0.311318,10.633535,-0.376274,-0.088347,0.060327
2024-01-01 00:00:09.480,-0.126062,-0.3592,10.906637,-0.346704,0.03116,0.050555
2024-01-01 00:00:09.490,-0.152359,-0.425803,11.468161,-0.258449,-0.083883,0.161635
2024-01-01 00:00:09.500,-0.238216,-0.264568,11.480289,-0.262401,-0.088926,0.135295
2024-01-01 00:00:09.510,-0.234888,-0.350715,12.072521,-0.272602,-0.222496,0.142849
2024-01-01 00:00:09.520,-0.403757,-0.083591,11.781436,-0.302811,-0.062799,0.123733
2024-01-01 00:00:09.530,-0.224614,-0.183535,11.887279,-0.277215,-0.250181,0.183855
2024-01-01 00:00:09.540,-0.378575,-0.24339,11.706963,-0.184232,-0.155424,0.155064
2024-01-01 00:00:09.550,-0.309484,-0.210952,11.352473,-0.127188,-0.271332,0.141987
2024-01-01 00:00:09.560,-0.392926,-0.132391,11.291522,-0.105361,-0.264474,0.08482
2024-01-01 00:00:09.570,-0.399604,-0.105342,11.130983,-0.137912,-0.202865,0.096619
2024-01-01 00:00:09.580,-0.400473,0.043102,10.786298,-0.013711,-0.196431,0.066645
2024-01-01 00:00:09.590,-0.414124,0.009231,9.896003,0.015613,-0.313531,-0.015193
2024-01-01 00:00:09.600,-0.396332,-0.023575,9.540254,-0.018577,-0.194226,-0.072322
2024-01-01 00:00:09.610,-0.33318,0.226358,8.922429,0.035906,-0.191925,-0.045449
2024-01-01 00:00:09.620,-0.409617,0.118219,8.52697,0.148699,-0.283197,-0.139782
2024-01-01 00:00:09.630,-0.348701,0.21339,8.038443,0.140158,-0.145302,-0.112728
2024-01-01 00:00:09.640,-0.387207,0.138782,7.84927,0.266898,-0.28397,-0.149099
2024-01-01 00:00:09.650,-0.234294,0.249516,7.738013,0.245523,-0.225407,-0.110209
2024-01-01 00:00:09.660,-0.368369,0.275404,7.523898,0.226183,-0.150637,-0.16174
2024-01-01 00:00:09.670,-0.130693,0.126008,7.670727,0.27667,-0.195327,-0.111849
2024-01-01 00:00:09.680,-0.23478,0.461324,7.859822,0.303271,-0.115458,-0.147795
2024-01-01 00:00:09.690,-0.299701,0.422222,8.283305,0.282551,-0.090857,-0.082545
2024-01-01 00:00:09.700,-0.126162,0.301756,8.379067,0.287902,-0.085137,-0.024851
2024-01-01 00:00:09.710,-0.140222,0.255407,8.979298,0.378658,-0.006012,-0.088153
2024-01-01 00:00:09.720,0.033343,0.37681,9.766195,0.391269,-0.030256,-0.01378
2024-01-01 00:00:09.730,-0.033831,0.356644,10.164168,0.379897,0.021788,0.094706
2024-01-01 00:00:09.740,0.034724,0.374142,10.692433,0.421454,0.096445,0.048365
2024-01-01 00:00:09.750,-0.029656,0.352326,10.957605,0.309911,0.107038,0.07985
2024-01-01 00:00:09.760,0.13477,0.364259,11.404386,0.407473,0.134276,0.12908
2024-01-01 00:00:09.770,0.024183,0.421932,11.82562,0.261101,0.063704,0.128411
2024-01-01 00:00:09.780,0.135574,0.329849,12.127947,0.233766,0.171954,0.090868
2024-01-01 00:00:09.790,0.363771,0.17484,11.707598,0.170815,0.124374,0.18331
2024-01-01 00:00:09.800,0.402361,0.338735,11.791526,0.20744,0.124539,0.088469
2024-01-01 00:00:09.810,0.405509,0.328793,12.056457,0.172358,0.202788,0.127272
2024-01-01 00:00:09.820,0.321072,0.414855,11.579333,0.188987,0.176135,0.159691
2024-01-01 00:00:09.830,0.41619,0.03576,11.18344,0.137834,0.272868,0.089817
2024-01-01 00:00:09.840,0.435623,0.106323,10.680037,0.027244,0.2829,0.051336
2024-01-01 00:00:09.850,0.35326,-0.119597,10.311902,0.027335,0.152607,0.066275
2024-01-01 00:00:09.860,0.570196,0.050668,9.680288,-0.012157,0.208543,-0.020035
2024-01-01 00:00:09.870,0.518032,-0.078082,9.695454,-0.123025,0.175812,-0.065863
2024-01-01 00:00:09.880,0.422037,0.07947,8.892626,-0.123453,0.221154,-0.054083
2024-01-01 00:00:09.890,0.427797,-0.17555,8.45071,-0.152122,0.259229,-0.097574
2024-01-01 00:00:09.900,0.4225,-0.286357,8.183739,-0.079541,0.213346,-0.154206
2024-01-01 00:00:09.910,0.217194,-0.224522,7.968309,-0.177248,0.181919,-0.116303
2024-01-01 00:00:09.920,0.330322,-0.377935,7.801196,-0.186788,0.259507,-0.132703
2024-01-01 00:00:09.930,0.260373,-0.189914,7.771502,-0.324934,0.059719,-0.160761
2024-01-01 00:00:09.940,0.195384,-0.441938,7.585399,-0.217021,0.214907,-0.153965
2024-01-01 00:00:09.950,0.209887,-0.297447,7.819587,-0.234669,0.101883,-0.118552
2024-01-01 00:00:09.960,0.329913,-0.484893,8.268619,-0.418585,0.099482,-0.077248
2024-01-01 00:00:09.970,0.188575,-0.358933,8.45235,-0.368575,0.049914,-0.095657
2024-01-01 00:00:09.980,0.040969,-0.211978,8.977721,-0.31866,0.125291,-0.037053
2024-01-01 00:00:09.990,0.080655,-0.320097,9.530098,-0.31673,-0.042189,-0.006206
2024-01-01 00:00:10.000,0.094511,-0.418817,10.098148,-0.383662,-0.009101,0.037995
2024-01-01 00:00:10.010,0.004483,-0.348298,10.214632,-0.361077,-0.012232,0.046949
2024-01-01 00:00:10.020,-0.115829,-0.335755,11.053268,-0.367066,-0.14755,0.050089
2024-01-01 00:00:10.030,-0.221837,-0.286227,11.314607,-0.318517,-0.140485,0.091102
2024-01-01 00:00:10.040,-0.16141,-0.415851,11.776499,-0.246643,-0.128113,0.13713
2024-01-01 00:00:10.050,-0.230041,-0.237422,12.007475,-0.32338,-0.189622,0.196436
2024-01-01 00:00:10.060,-0.230624,-0.475657,12.240643,-0.209265,-0.208691,0.13476
2024-01-01 00:00:10.070,-0.288064,-0.280673,12.193116,-0.269366,-0.205759,0.172787
2024-01-01 00:00:10.080,-0.286975,-0.237211,12.065353,-0.24053,-0.173598,0.130161
2024-01-01 00:00:10.090,-0.44081,-0.112673,11.842636,-0.12241,-0.238242,0.127138
2024-01-01 00:00:10.100,-0.314276,-0.124513,11.334735,-0.080227,-0.179227,0.146441
2024-01-01 00:00:10.110,-0.419869,-0.200047,10.881062,-0.045032,-0.29193,0.095627
2024-01-01 00:00:10.120,-0.279781,-0.126497,10.534958,-0.113488,-0.310264,0.003263
2024-01-01 00:00:10.130,-0.505041,0.008745,10.009667,-0.030447,-0.153631,-0.011048
2024-01-01 00:00:10.140,-0.309057,0.027171,9.344476,0.074646,-0.28175,0.009107
2024-01-01 00:00:10.150,-0.42408,0.027359,8.965108,0.075766,-0.309942,-0.05749
2024-01-01 00:00:10.160,-0.478064,0.07442,8.461426,0.059202,-0.323742,-0.126054
2024-01-01 00:00:10.170,-0.444947,0.206254,7.973229,0.173476,-0.171932,-0.14107
2024-01-01 00:00:10.180,-0.406663,0.144785,8.021509,0.15046,-0.228751,-0.114036
2024-01-01 00:00:10.190,-0.316754,0.212278,7.669552,0.309052,-0.207512,-0.116672
2024-01-01 00:00:10.200,-0.273777,0.423083,7.917596,0.32673,-0.183296,-0.149445
2024-01-01 00:00:10.210,-0.322155,0.162388,7.433913,0.306487,-0.10283,-0.071122
2024-01-01 00:00:10.220,-0.23513,0.151197,7.776465,0.367395,-0.138522,-0.108231
2024-01-01 00:00:10.230,-0.015575,0.381051,8.15211,0.321604,0.013338,-0.120676
2024-01-01 00:00:10.240,-2e-06,0.278793,8.694575,0.371356,-0.070093,-0.112155
2024-01-01 00:00:10.250,-0.052682,0.317847,9.02988,0.417192,0.004429,-0.086522
2024-01-01 00:00:10.260,-0.032748,0.286399,9.50775,0.361166,0.02038,-0.013721
2024-01-01 00:00:10.270,0.026098,0.328981,9.802088,0.337005,0.007342,-0.003674
2024-01-01 00:00:10.280,0.117637,0.473798,10.298958,0.260683,0.008738,0.095383
2024-01-01 00:00:10.290,0.037867,0.401563,10.986528,0.333236,0.083093,0.120909
2024-01-01 00:00:10.300,0.148619,0.393292,11.138451,0.365485,0.11951,0.123519
2024-01-01 00:00:10.310,0.082955,0.193557,11.585662,0.354137,0.091616,0.091138
2024-01-01 00:00:10.320,0.29269,0.193161,11.963064,0.310471,0.153179,0.12151
2024-01-01 00:00:10.330,0.353316,0.032672,11.851186,0.232733,0.229333,0.186889
2024-01-01 00:00:10.340,0.299602,0.166084,12.23212,0.131993,0.291418,0.131834
2024-01-01 00:00:10.350,0.496323,0.275289,12.050249,0.173992,0.248499,0.173891
2024-01-01 00:00:10.360,0.299489,0.205343,11.395559,0.14877,0.313999,0.138416
2024-01-01 00:00:10.370,0.302176,0.109286,11.157976,0.111361,0.20149,0.102995
2024-01-01 00:00:10.380,0.453396,0.086528,10.541421,0.11924,0.277005,0.052162
2024-01-01 00:00:10.390,0.52944,-0.006687,10.295517,0.147708,0.314522,0.03828
2024-01-01 00:00:10.400,0.5846,0.024263,10.024023,0.014059,0.20512,0.012444
2024-01-01 00:00:10.410,0.411313,0.028504,9.337805,-0.043603,0.224623,0.003014
2024-01-01 00:00:10.420,0.526405,-0.202243,8.981914,-0.085933,0.331401,-0.087745
2024-01-01 00:00:10.430,0.423173,-0.088221,8.245653,-0.105974,0.188053,-0.098975
2024-01-01 00:00:10.440,0.392831,-0.075303,8.226837,-0.191313,0.158855,-0.114759
2024-01-01 00:00:10.450,0.452228,-0.218787,7.748691,-0.179569,0.288363,-0.114986
2024-01-01 00:00:10.460,0.403463,-0.162697,7.665096,-0.196213,0.254992,-0.173622
2024-01-01 00:00:10.470,0.190164,-0.023801,7.596228,-0.238489,0.197315,-0.189486
2024-01-01 00:00:10.480,0.395125,-0.284179,7.484753,-0.252954,0.151605,-0.125316
2024-01-01 00:00:10.490,0.344395,-0.267499,7.682769,-0.277277,0.108067,-0.178784
2024-01-01 00:00:10.500,0.137768,-0.377103,8.286361,-0.406654,0.118438,-0.075233
2024-01-01 00:00:10.510,0.170767,-0.318358,8.576348,-0.301015,0.15627,-0.092871
2024-01-01 00:00:10.520,0.128035,-0.306341,9.118955,-0.376713,0.061102,-0.104282
2024-01-01 00:00:10.530,0.057582,-0.333245,9.500779,-0.403624,0.128752,-0.038816
2024-01-01 00:00:10.540,-0.059577,-0.431367,9.983431,-0.405013,-0.053538,0.021736
2024-01-01 00:00:10.550,-0.121354,-0.329517,10.204801,-0.324348,-0.038553,0.02859
2024-01-01 00:00:10.560,-0.120826,-0.220611,10.889673,-0.348716,-0.084643,0.07698
2024-01-01 00:00:10.570,-0.074517,-0.288698,11.332335,-0.408688,-0.147777,0.126278
2024-01-01 00:00:10.580,-0.172127,-0.230249,11.953441,-0.283306,-0.12744,0.120103
2024-01-01 00:00:10.590,-0.289632,-0.304638,11.987923,-0.357658,-0.123569,0.113357
2024-01-01 00:00:10.600,-0.239104,-0.200297,12.227985,-0.253298,-0.140922,0.140183
2024-01-01 00:00:10.610,-0.565518,-0.209043,12.082127,-0.21946,-0.079052,0.191252
2024-01-01 00:00:10.620,-0.277967,-0.275429,11.763218,-0.155077,-0.182259,0.191001
2024-01-01 00:00:10.630,-0.536284,-0.139153,11.653996,-0.075551,-0.163108,0.063931
2024-01-01 00:00:10.640,-0.447979,-0.207026,11.340043,-0.195924,-0.229464,0.134636
2024-01-01 00:00:10.650,-0.524774,-0.139652,10.75145,-0.091645,-0.157875,0.081299
2024-01-01 00:00:10.660,-0.549115,-0.034004,10.364108,-0.062967,-0.1276,0.069431
2024-01-01 00:00:10.670,-0.356998,0.015164,9.887408,0.013072,-0.22337,-0.009132
2024-01-01 00:00:10.680,-0.485527,-0.063102,9.649793,0.04282,-0.298583,-0.080392
2024-01-01 00:00:10.690,-0.412586,0.156574,8.609108,0.054628,-0.272055,-0.043064
2024-01-01 00:00:10.700,-0.430309,0.157258,8.662211,0.089453,-0.222879,-0.11882
2024-01-01 00:00:10.710,-0.36888,0.092857,7.972473,0.093412,-0.20331,-0.157354
2024-01-01 00:00:10.720,-0.375889,0.06195,7.630198,0.23435,-0.17732,-0.174142
2024-01-01 00:00:10.730,-0.454506,0.206588,7.842297,0.241141,-0.172471,-0.128202
2024-01-01 00:00:10.740,-0.237244,0.212782,7.719853,0.294346,-0.175732,-0.145812
2024-01-01 00:00:10.750,-0.317245,0.284431,7.86145,0.25986,-0.186113,-0.122212
2024-01-01 00:00:10.760,-0.359319,0.269533,7.97162,0.26574,-0.110383,-0.113461
2024-01-01 00:00:10.770,-0.222919,0.157156,8.444177,0.263836,-0.012067,-0.126819
2024-01-01 00:00:10.780,-0.019938,0.301563,8.592863,0.350577,-0.026781,-0.090815
2024-01-01 00:00:10.790,-0.021419,0.318568,8.929478,0.291028,-0.022952,-0.073778
2024-01-01 00:00:10.800,-0.06556,0.399465,9.494427,0.441205,0.030552,-0.031333
2024-01-01 00:00:10.810,-0.01333,0.293959,10.139305,0.284433,-0.010436,-0.019282
2024-01-01 00:00:10.820,0.040961,0.480429,10.337989,0.359818,0.011638,0.055685
2024-01-01 00:00:10.830,0.284012,0.184848,10.824501,0.416122,0.028095,0.108091
2024-01-01 00:00:10.840,0.198015,0.429756,11.283446,0.354817,0.086769,0.079124
2024-01-01 00:00:10.850,0.24919,0.289613,11.339785,0.316342,0.098226,0.164266
2024-01-01 00:00:10.860,0.341636,0.354867,11.902509,0.237676,0.204421,0.144665
2024-01-01 00:00:10.870,0.319241,0.267162,11.713659,0.19169,0.142977,0.156317
2024-01-01 00:00:10.880,0.316287,0.323099,12.001596,0.270437,0.147092,0.097901
2024-01-01 00:00:10.890,0.353623,0.168969,12.002926,0.275266,0.302312,0.08645
2024-01-01 00:00:10.900,0.390935,0.077392,11.570019,0.143339,0.1978,0.129202
2024-01-01 00:00:10.910,0.415661,0.242013,11.562928,0.07142,0.240253,0.126057
2024-01-01 00:00:10.920,0.49317,0.080652,10.681264,-0.033178,0.264211,0.0542
2024-01-01 00:00:10.930,0.449563,0.067601,10.609305,0.000838,0.190614,0.092418
2024-01-01 00:00:10.940,0.508451,0.108128,10.028749,0.003665,0.311685,0.030058
2024-01-01 00:00:10.950,0.441739,-0.113862,9.160612,0.04865,0.280854,-0.053976
2024-01-01 00:00:10.960,0.446791,-0.023898,9.336278,-0.037881,0.322641,-0.059098
2024-01-01 00:00:10.970,0.266999,-0.157994,8.479136,-0.095548,0.20318,-0.015781
2024-01-01 00:00:10.980,0.480751,-0.159145,7.987251,-0.168577,0.231314,-0.152581
2024-01-01 00:00:10.990,0.410251,-0.178551,7.629034,-0.213492,0.214486,-0.118463
2024-01-01 00:00:11.000,0.432294,-0.337624,7.634375,-0.147324,0.209002,-0.15577
2024-01-01 00:00:11.010,0.085914,-0.310248,7.590904,-0.237904,0.103722,-0.128792
2024-01-01 00:00:11.020,0.445556,-0.16684,7.686493,-0.380056,0.160256,-0.107816
2024-01-01 00:00:11.030,0.224429,-0.227303,7.802663,-0.331876,0.059564,-0.145405
2024-01-01 00:00:11.040,0.27818,-0.322455,8.224221,-0.360355,0.123209,-0.08103
2024-01-01 00:00:11.050,0.057702,-0.312952,8.443487,-0.359715,-0.028158,-0.022571
2024-01-01 00:00:11.060,0.139383,-0.366411,8.654222,-0.314726,-0.042379,-0.057025
2024-01-01 00:00:11.070,-0.045666,-0.240183,9.411497,-0.354082,0.062376,-0.002096
2024-01-01 00:00:11.080,-0.06357,-0.365867,9.588463,-0.353682,-0.034935,-0.008605
2024-01-01 00:00:11.090,0.087363,-0.327695,10.499141,-0.280569,-0.085926,0.043947
2024-01-01 00:00:11.100,-0.132216,-0.246289,10.767426,-0.372794,-0.001436,0.069994
2024-01-01 00:00:11.110,-0.14919,-0.387325,11.347616,-0.231925,-0.076166,0.127075
2024-01-01 00:00:11.120,-0.144353,-0.183204,11.84755,-0.341473,-0.075261,0.161625
2024-01-01 00:00:11.130,-0.218787,-0.408959,11.736366,-0.282062,-0.151891,0.137757
2024-01-01 00:00:11.140,-0.287402,-0.130895,12.154731,-0.275327,-0.032371,0.195023
2024-01-01 00:00:11.150,-0.307188,-0.262297,11.929732,-0.226312,-0.217106,0.194861
2024-01-01 00:00:11.160,-0.176518,-0.219976,12.139294,-0.17833,-0.117659,0.166291
2024-01-01 00:00:11.170,-0.400826,-0.317129,11.591868,-0.144236,-0.223189,0.109745
2024-01-01 00:00:11.180,-0.402204,-0.165438,11.192012,-0.166711,-0.31511,0.084469
2024-01-01 00:00:11.190,-0.350665,-0.173624,11.011422,-0.146585,-0.217367,0.050515
2024-01-01 00:00:11.200,-0.35683,-0.099214,10.374086,0.074557,-0.231635,0.071392
2024-01-01 00:00:11.210,-0.354851,-0.021066,9.810466,-0.03428,-0.302462,-0.027716
2024-01-01 00:00:11.220,-0.397181,0.107199,9.355415,0.065536,-0.295155,-0.005802
2024-01-01 00:00:11.230,-0.532132,0.087428,8.931424,-0.009563,-0.246064,-0.09188
2024-01-01 00:00:11.240,-0.296478,0.134721,8.697407,0.096126,-0.219819,-0.064879
2024-01-01 00:00:11.250,-0.499552,0.060266,7.834671,0.141547,-0.350113,-0.114384
2024-01-01 00:00:11.260,-0.358817,0.11325,7.847681,0.207351,-0.160137,-0.094021
2024-01-01 00:00:11.270,-0.413381,0.36093,7.763224,0.080909,-0.220857,-0.1117
2024-01-01 00:00:11.280,-0.323412,0.188606,7.639018,0.25573,-0.24341,-0.106948
2024-01-01 00:00:11.290,-0.252925,0.406968,7.865437,0.216985,-0.108072,-0.102156
2024-01-01 00:00:11.300,-0.210691,0.278369,7.832033,0.314031,-0.132514,-0.129792
2024-01-01 00:00:11.310,-0.156626,0.317318,8.095621,0.265318,-0.044958,-0.149766
2024-01-01 00:00:11.320,-0.012693,0.417801,8.583082,0.289398,-0.056874,-0.121287
2024-01-01 00:00:11.330,-0.055002,0.444475,8.950897,0.329042,-0.050789,-0.122196
2024-01-01 00:00:11.340,-0.059079,0.339781,9.366261,0.296029,-0.029607,-0.058772
2024-01-01 00:00:11.350,0.089853,0.318801,10.011804,0.326083,0.031206,0.010545
2024-01-01 00:00:11.360,0.159984,0.341876,10.339366,0.28668,0.015338,0.025977
2024-01-01 00:00:11.370,0.017843,0.365197,10.814662,0.246502,0.021844,0.069346
2024-01-01 00:00:11.380,0.213501,0.39671,11.237208,0.376303,0.122556,0.117491
2024-01-01 00:00:11.390,0.269222,0.308594,11.848332,0.243453,0.11118,0.116017
2024-01-01 00:00:11.400,0.233864,0.336453,11.39237,0.278008,0.144828,0.107176
2024-01-01 00:00:11.410,0.408787,0.392823,12.053808,0.299399,0.220431,0.147344
2024-01-01 00:00:11.420,0.323753,0.263536,12.000946,0.202284,0.180838,0.122077
2024-01-01 00:00:11.430,0.378296,0.226093,11.62733,0.159902,0.205335,0.132976
2024-01-01 00:00:11.440,0.381923,0.04506,11.698159,0.177885,0.189889,0.165854
2024-01-01 00:00:11.450,0.41919,-0.080722,11.396147,0.185633,0.253728,0.095166
2024-01-01 00:00:11.460,0.346771,0.122217,11.00476,0.032682,0.258865,0.128559
2024-01-01 00:00:11.470,0.329931,0.043741,10.050507,0.04382,0.292336,0.086468
2024-01-01 00:00:11.480,0.577346,-0.030368,10.150843,-0.075811,0.220924,-0.008114
2024-01-01 00:00:11.490,0.380604,-0.010363,9.325512,-0.049505,0.226199,-0.058822
2024-01-01 00:00:11.500,0.36157,-0.074933,9.049571,-0.068391,0.284541,-0.060446
2024-01-01 00:00:11.510,0.255177,-0.019188,8.614646,-0.152142,0.250082,-0.054481
2024-01-01 00:00:11.520,0.357125,-0.140353,7.999221,-0.170092,0.18149,-0.129202
2024-01-01 00:00:11.530,0.277675,-0.242839,7.947444,-0.253497,0.278395,-0.106504
2024-01-01 00:00:11.540,0.484984,-0.137243,7.613812,-0.212602,0.111534,-0.109544
2024-01-01 00:00:11.550,0.399733,-0.264274,7.299318,-0.194119,0.216407,-0.173219
2024-01-01 00:00:11.560,0.224912,-0.231893,7.842018,-0.328873,0.092275,-0.166405
2024-01-01 00:00:11.570,0.417396,-0.335621,7.722815,-0.328562,0.226068,-0.113002
2024-01-01 00:00:11.580,0.269775,-0.36881,7.989226,-0.291696,0.029011,-0.110849
2024-01-01 00:00:11.590,0.116698,-0.325207,8.426396,-0.271336,0.136881,-0.110796
2024-01-01 00:00:11.600,-0.107745,-0.341547,8.968383,-0.417233,0.047145,-0.070733
2024-01-01 00:00:11.610,0.223761,-0.310194,9.407159,-0.35702,0.004162,-0.028996
2024-01-01 00:00:11.620,-0.122949,-0.371372,10.007387,-0.335723,0.002723,-0.039093
2024-01-01 00:00:11.630,-0.195525,-0.493363,10.227481,-0.351557,-0.003901,0.065133
2024-01-01 00:00:11.640,-0.033334,-0.372971,10.786979,-0.462189,-0.109187,0.059844
2024-01-01 00:00:11.650,0.030348,-0.262169,11.292276,-0.30062,-0.132363,0.018739
2024-01-01 00:00:11.660,-0.101556,-0.332392,11.924956,-0.232635,-0.085463,0.124075
2024-01-01 00:00:11.670,-0.211783,-0.307072,11.855259,-0.281529,-0.228087,0.118366
2024-01-01 00:00:11.680,-0.250445,-0.18333,12.156139,-0.313796,-0.194781,0.19953
2024-01-01 00:00:11.690,-0.266856,-0.290535,12.002615,-0.259234,-0.034149,0.131539
2024-01-01 00:00:11.700,-0.306993,-0.325184,11.810022,-0.113264,-0.252683,0.108382
2024-01-01 00:00:11.710,-0.372824,-0.180068,11.619717,-0.12172,-0.162232,0.141151
2024-01-01 00:00:11.720,-0.409257,-0.169151,11.306193,-0.098416,-0.261294,0.083922
2024-01-01 00:00:11.730,-0.439234,-0.169155,11.014819,-0.074034,-0.215785,0.052589
2024-01-01 00:00:11.740,-0.505313,-0.066083,10.66329,-0.085109,-0.214502,0.059405
2024-01-01 00:00:11.750,-0.472209,0.027773,10.009037,-0.021576,-0.193416,-0.021322
2024-01-01 00:00:11.760,-0.583877,0.028371,9.623322,0.025218,-0.259146,-0.068587
2024-01-01 00:00:11.770,-0.448937,0.093941,8.810354,0.096861,-0.145594,-0.006511
2024-01-01 00:00:11.780,-0.506829,0.253786,8.448719,0.18416,-0.267101,-0.071189
2024-01-01 00:00:11.790,-0.496924,0.119146,8.02805,0.202494,-0.21531,-0.122015
2024-01-01 00:00:11.800,-0.369623,0.204728,7.899732,0.111491,-0.201077,-0.133566
2024-01-01 00:00:11.810,-0.242844,0.175142,7.619978,0.227079,-0.252879,-0.130473
2024-01-01 00:00:11.820,-0.246146,0.178674,7.719553,0.283221,-0.191856,-0.120794
2024-01-01 00:00:11.830,-0.406342,0.226767,7.525143,0.304502,-0.14787,-0.168943
2024-01-01 00:00:11.840,-0.317172,0.25874,7.841448,0.265579,-0.153829,-0.123675
2024-01-01 00:00:11.850,-0.116825,0.345269,8.214555,0.462217,0.015331,-0.131006
2024-01-01 00:00:11.860,-0.222177,0.519633,8.169707,0.267853,-0.121697,-0.096385
2024-01-01 00:00:11.870,-0.111101,0.285139,9.237356,0.288263,0.007232,-0.055922
2024-01-01 00:00:11.880,0.00258,0.315184,9.364211,0.360194,0.01981,-0.027699
2024-01-01 00:00:11.890,-0.066626,0.344849,9.612215,0.455739,0.00533,0.029292
2024-01-01 00:00:11.900,0.07139,0.378221,10.443266,0.304748,-0.008283,0.056173
2024-01-01 00:00:11.910,0.007506,0.35962,10.895333,0.325245,0.025047,0.028413
2024-01-01 00:00:11.920,0.115845,0.42867,11.290633,0.379807,0.065187,0.061055
2024-01-01 00:00:11.930,0.237048,0.114836,11.78382,0.308054,0.028194,0.11335
2024-01-01 00:00:11.940,0.128682,0.096825,11.98122,0.27105,0.092116,0.195252
2024-01-01 00:00:11.950,0.332556,0.223055,12.036886,0.291007,0.091053,0.123239
2024-01-01 00:00:11.960,0.332928,0.321907,12.065343,0.247749,0.253127,0.142923
2024-01-01 00:00:11.970,0.411362,0.077107,11.869991,0.253881,0.234903,0.125431
2024-01-01 00:00:11.980,0.412781,-0.072749,11.928044,0.232435,0.25867,0.109632
2024-01-01 00:00:11.990,0.526372,0.176792,11.116222,0.146447,0.261242,0.109536
2024-01-01 00:00:12.000,0.443996,0.112055,10.953159,0.107149,0.249447,0.118538
2024-01-01 00:00:12.010,0.410502,-0.034439,10.475657,0.063483,0.320175,0.0584
2024-01-01 00:00:12.020,0.459507,-0.066563,10.086274,0.036736,0.219308,-0.013587
2024-01-01 00:00:12.030,0.491982,-0.105963,9.327776,-0.025625,0.25451,0.058348
2024-01-01 00:00:12.040,0.445164,-0.059821,8.702023,-0.068694,0.282495,-0.055354
2024-01-01 00:00:12.050,0.431281,-0.158122,8.541888,-0.048185,0.171736,-0.105383
2024-01-01 00:00:12.060,0.352872,-0.106385,8.184879,-0.070105,0.382069,-0.071317
2024-01-01 00:00:12.070,0.331473,-0.410204,8.080231,-0.257212,0.215042,-0.147245
2024-01-01 00:00:12.080,0.242577,-0.28385,7.485491,-0.214801,0.204202,-0.09561
2024-01-01 00:00:12.090,0.460241,-0.335946,7.783393,-0.280296,0.240774,-0.176106
2024-01-01 00:00:12.100,0.181929,-0.293609,8.017879,-0.28865,0.202102,-0.103501
2024-01-01 00:00:12.110,0.183369,-0.339696,7.774285,-0.276527,0.134571,-0.128904
2024-01-01 00:00:12.120,0.135466,-0.25237,7.912041,-0.282726,0.113695,-0.077472
2024-01-01 00:00:12.130,0.216065,-0.480219,8.411127,-0.337078,0.005054,-0.034163
2024-01-01 00:00:12.140,0.070456,-0.338631,8.912791,-0.437937,0.024428,-0.095295
2024-01-01 00:00:12.150,0.142182,-0.303779,9.482193,-0.396698,0.049395,0.010157
2024-01-01 00:00:12.160,-0.063778,-0.201384,9.818053,-0.30509,0.016695,-0.03567
2024-01-01 00:00:12.170,-0.039707,-0.385201,10.643969,-0.483681,0.026599,0.009541
2024-01-01 00:00:12.180,-0.180144,-0.312765,10.715096,-0.27935,-0.068978,0.049007
2024-01-01 00:00:12.190,0.008536,-0.470518,11.035252,-0.300148,-0.159962,0.116436
2024-01-01 00:00:12.200,-0.305641,-0.500648,11.795985,-0.243483,-0.064182,0.12508
2024-01-01 00:00:12.210,-0.23056,-0.220615,11.524646,-0.298125,-0.070054,0.135157
2024-01-01 00:00:12.220,-0.245907,-0.263654,11.960396,-0.36628,-0.119871,0.153093
2024-01-01 00:00:12.230,-0.300764,-0.140387,12.466421,-0.213149,-0.193664,0.166973
2024-01-01 00:00:12.240,-0.38144,-0.312829,11.886875,-0.139224,-0.151457,0.161776
2024-01-01 00:00:12.250,-0.404801,-0.126912,11.498566,-0.122268,-0.047674,0.159417
2024-01-01 00:00:12.260,-0.413382,0.017729,11.33611,-0.164911,-0.225846,0.159241
2024-01-01 00:00:12.270,-0.445488,-0.059693,10.93251,-0.088931,-0.306547,0.076413
2024-01-01 00:00:12.280,-0.367601,-0.031376,10.498794,-0.080144,-0.276376,0.029688
2024-01-01 00:00:12.290,-0.272847,-0.012328,10.072815,-0.053976,-0.218553,0.029552
2024-01-01 00:00:12.300,-0.493193,-0.098018,9.307588,0.075422,-0.329459,-0.057956
2024-01-01 00:00:12.310,-0.551024,0.17639,9.225222,0.008068,-0.236774,-0.077491
2024-01-01 00:00:12.320,-0.435386,0.05845,8.562605,0.062628,-0.218941,-0.057575
2024-01-01 00:00:12.330,-0.203047,0.185602,8.257743,0.090042,-0.150701,-0.116993
2024-01-01 00:00:12.340,-0.449288,0.056164,7.766828,0.106695,-0.148376,-0.169129
2024-01-01 00:00:12.350,-0.224235,0.120366,7.871263,0.222044,-0.154195,-0.190037
2024-01-01 00:00:12.360,-0.18672,0.360146,7.571771,0.303414,-0.286432,-0.148516
2024-01-01 00:00:12.370,-0.32646,0.244858,7.702412,0.263398,-0.11071,-0.112281
2024-01-01 00:00:12.380,-0.194081,0.412525,7.686975,0.220975,-0.097835,-0.101352
2024-01-01 00:00:12.390,-0.063519,0.309624,7.950328,0.35788,-0.094864,-0.113273
2024-01-01 00:00:12.400,-0.175694,0.183884,8.568097,0.415521,-0.167269,-0.031446
2024-01-01 00:00:12.410,-0.11126,0.413482,8.835744,0.309804,-0.091602,-0.065034
2024-01-01 00:00:12.420,-0.089836,0.301184,9.2605,0.324448,-0.082397,-0.032891
2024-01-01 00:00:12.430,-0.072225,0.405826,9.801074,0.375714,-0.095775,-0.071054
2024-01-01 00:00:12.440,0.00915,0.348776,10.506659,0.427853,0.033794,0.02693
2024-01-01 00:00:12.450,0.014488,0.215456,10.779862,0.312914,0.022555,0.098121
2024-01-01 00:00:12.460,0.164923,0.339618,11.271675,0.259852,0.221375,0.147782
2024-01-01 00:00:12.470,0.148202,0.485332,11.627038,0.341205,0.108117,0.098828
2024-01-01 00:00:12.480,0.273272,0.328051,11.574936,0.328565,0.206115,0.153813
2024-01-01 00:00:12.490,0.171428,0.259091,11.769119,0.263999,0.085934,0.180028
2024-01-01 00:00:12.500,0.359705,0.321239,12.050122,0.207304,0.158626,0.149633
2024-01-01 00:00:12.510,0.432752,0.220407,11.781128,0.253272,0.208217,0.073434
2024-01-01 00:00:12.520,0.234462,0.18591,11.830119,0.195549,0.173459,0.134347
2024-01-01 00:00:12.530,0.446455,0.045126,11.496332,0.094034,0.210296,0.127932
2024-01-01 00:00:12.540,0.531689,0.112684,11.055905,0.096431,0.229922,0.04917
2024-01-01 00:00:12.550,0.347795,0.137062,10.756444,-0.013358,0.235286,0.038294
2024-01-01 00:00:12.560,0.583459,-0.053139,9.970204,0.04804,0.342563,-0.022892
2024-01-01 00:00:12.570,0.482188,0.087038,9.569893,-0.040033,0.268171,-0.100112
2024-01-01 00:00:12.580,0.38522,-0.074561,8.892961,-0.089011,0.269321,-0.025738
2024-01-01 00:00:12.590,0.42415,-0.177642,8.90119,-0.108264,0.2651,-0.087158
2024-01-01 00:00:12.600,0.45448,-0.064766,8.452327,-0.142561,0.258306,-0.064926
2024-01-01 00:00:12.610,0.391561,-0.203523,7.867126,-0.135833,0.210012,-0.106871
2024-01-01 00:00:12.620,0.399043,-0.153382,7.738591,-0.184589,0.181708,-0.155812
2024-01-01 00:00:12.630,0.247942,-0.268156,7.814402,-0.252636,0.187005,-0.152461
2024-01-01 00:00:12.640,0.296456,-0.276968,7.636758,-0.233998,0.215011,-0.129685
2024-01-01 00:00:12.650,0.1273,-0.256387,7.724473,-0.275835,0.189866,-0.106473
2024-01-01 00:00:12.660,0.185743,-0.292294,8.225182,-0.336896,0.096114,-0.107314
2024-01-01 00:00:12.670,0.073943,-0.490641,8.46935,-0.337234,0.119645,-0.059042
2024-01-01 00:00:12.680,0.037053,-0.43166,8.921345,-0.349372,0.043546,-0.071362
2024-01-01 00:00:12.690,0.143127,-0.273952,9.254389,-0.323041,0.026271,-0.059265
2024-01-01 00:00:12.700,0.079292,-0.360515,9.630689,-0.368296,-0.028128,0.003397
2024-01-01 00:00:12.710,-0.011427,-0.388757,10.428354,-0.366379,-0.042503,0.045901
2024-01-01 00:00:12.720,-0.198875,-0.447774,11.001884,-0.24065,0.005127,0.035963
2024-01-01 00:00:12.730,-0.18663,-0.413117,11.248616,-0.279751,-0.084999,0.060295
2024-01-01 00:00:12.740,-0.111917,-0.471719,11.835021,-0.348005,-0.109327,0.1368
2024-01-01 00:00:12.750,-0.242453,-0.297129,11.753615,-0.260479,-0.213356,0.127528
2024-01-01 00:00:12.760,-0.109643,-0.312049,11.830316,-0.258256,-0.179456,0.14356
2024-01-01 00:00:12.770,-0.301135,-0.313081,11.990468,-0.216176,-0.196844,0.138565
2024-01-01 00:00:12.780,-0.350157,-0.209599,11.882258,-0.197283,-0.244524,0.187753
2024-01-01 00:00:12.790,-0.418233,-0.140671,11.792001,-0.110306,-0.21753,0.165115
2024-01-01 00:00:12.800,-0.40549,0.034322,11.241631,-0.115853,-0.252666,0.068416
2024-01-01 00:00:12.810,-0.445419,-0.215633,11.161123,-0.097787,-0.236679,0.062146
2024-01-01 00:00:12.820,-0.38777,0.037799,10.787285,-0.002842,-0.240824,0.072017
2024-01-01 00:00:12.830,-0.373079,0.06337,9.985984,-0.002814,-0.297574,0.030457
2024-01-01 00:00:12.840,-0.511618,-0.036137,9.66913,0.032264,-0.269234,-0.02363
2024-01-01 00:00:12.850,-0.5483,0.082764,8.830692,0.082206,-0.241577,-0.090094
2024-01-01 00:00:12.860,-0.575795,0.069311,8.702136,0.101241,-0.179062,-0.107009
2024-01-01 00:00:12.870,-0.369563,0.158763,8.31796,0.144369,-0.215054,-0.127944
2024-01-01 00:00:12.880,-0.474236,0.300681,7.999187,0.150616,-0.247523,-0.123985
2024-01-01 00:00:12.890,-0.528749,0.262012,7.680604,0.176005,-0.178115,-0.093915
2024-01-01 00:00:12.900,-0.291169,0.28498,7.167587,0.194363,-0.093653,-0.170557
2024-01-01 00:00:12.910,-0.0842,0.237295,7.560657,0.202121,-0.111742,-0.177582
2024-01-01 00:00:12.920,-0.241679,0.176755,7.72514,0.251494,-0.10662,-0.139006
2024-01-01 00:00:12.930,-0.128411,0.298571,7.941592,0.306535,-0.072326,-0.086434
2024-01-01 00:00:12.940,-0.1406,0.427288,8.468661,0.335915,-0.009751,-0.136112
2024-01-01 00:00:12.950,-0.104727,0.21963,8.822678,0.328239,-5e-06,-0.019424
2024-01-01 00:00:12.960,0.028348,0.263825,9.246802,0.230447,0.003239,-0.035127
2024-01-01 00:00:12.970,-0.016151,0.360058,9.720307,0.428686,0.05736,-0.017316
2024-01-01 00:00:12.980,0.080615,0.268183,10.276711,0.40128,-0.021181,-0.008867
2024-01-01 00:00:12.990,0.136313,0.275867,11.026269,0.361557,-0.013682,0.092653
2024-01-01 00:00:13.000,0.106989,0.293112,11.176471,0.422375,0.096986,0.094794
2024-01-01 00:00:13.010,0.287493,0.201066,11.537057,0.261447,0.119062,0.128141
2024-01-01 00:00:13.020,0.239015,0.211509,11.787326,0.38382,0.113366,0.112464
2024-01-01 00:00:13.030,0.234017,0.320928,12.038067,0.216393,0.204891,0.138874
2024-01-01 00:00:13.040,0.374886,0.131706,12.069824,0.248232,0.091282,0.134815
2024-01-01 00:00:13.050,0.293092,0.076915,11.440876,0.141053,0.176022,0.139317
2024-01-01 00:00:13.060,0.3953,0.120027,11.834614,0.171164,0.194111,0.107507
2024-01-01 00:00:13.070,0.415084,0.192369,11.579867,0.15312,0.149192,0.059957
2024-01-01 00:00:13.080,0.519837,0.079634,10.80624,0.087653,0.315273,0.160521
2024-01-01 00:00:13.090,0.482246,0.018509,10.355161,0.091369,0.178857,0.006212
2024-01-01 00:00:13.100,0.447573,0.01876,9.933503,0.020162,0.220347,0.018469
2024-01-01 00:00:13.110,0.514229,-0.165116,9.37739,-0.05158,0.294737,-0.074925
2024-01-01 00:00:13.120,0.553196,-0.026209,9.031316,-0.094126,0.277847,-0.115294
2024-01-01 00:00:13.130,0.473807,-0.074548,8.256415,-0.064677,0.183026,-0.083084
2024-01-01 00:00:13.140,0.411417,-0.175984,7.999296,-0.175926,0.262229,-0.106793
2024-01-01 00:00:13.150,0.281503,-0.098847,8.104913,-0.133551,0.229184,-0.094153
2024-01-01 00:00:13.160,0.271884,-0.303181,7.546079,-0.151846,0.315037,-0.132879
2024-01-01 00:00:13.170,0.298494,-0.153533,7.797495,-0.327201,0.199593,-0.154427
2024-01-01 00:00:13.180,0.23561,-0.258898,7.708342,-0.214611,0.150922,-0.175417
2024-01-01 00:00:13.190,0.227031,-0.32201,7.543733,-0.192065,0.091613,-0.091044
2024-01-01 00:00:13.200,0.200871,-0.316519,8.177905,-0.302329,0.071865,-0.089911
2024-01-01 00:00:13.210,0.190413,-0.3391,8.42544,-0.300565,0.040955,-0.130588
2024-01-01 00:00:13.220,0.092097,-0.244022,8.808846,-0.289795,0.122853,-0.062463
2024-01-01 00:00:13.230,0.085036,-0.434292,9.398208,-0.361931,0.026518,-0.02626
2024-01-01 00:00:13.240,-0.00097,-0.410969,9.941107,-0.340854,0.024858,-0.006285
2024-01-01 00:00:13.250,-0.216326,-0.264147,10.481273,-0.412761,0.04333,0.061687
2024-01-01 00:00:13.260,-0.184809,-0.387091,11.026668,-0.332516,-0.178847,0.095856
2024-01-01 00:00:13.270,-0.171082,-0.255218,11.329958,-0.302355,-0.024698,0.093745
2024-01-01 00:00:13.280,-0.304069,-0.174699,11.402663,-0.284845,-0.112393,0.114234
2024-01-01 00:00:13.290,-0.204237,-0.321994,11.781376,-0.236579,-0.118376,0.184225
2024-01-01 00:00:13.300,-0.171303,-0.210624,12.427333,-0.303874,-0.204622,0.17634
2024-01-01 00:00:13.310,-0.233827,-0.329131,12.110856,-0.263466,-0.221827,0.151638
2024-01-01 00:00:13.320,-0.381493,-0.14496,12.255858,-0.110564,-0.178012,0.093655
2024-01-01 00:00:13.330,-0.273328,-0.155115,11.895515,-0.178586,-0.098873,0.138243
2024-01-01 00:00:13.340,-0.403559,-0.096646,11.407192,-0.124488,-0.180641,0.127369
2024-01-01 00:00:13.350,-0.459674,-0.147739,11.016818,-0.099444,-0.177117,-0.003435
2024-01-01 00:00:13.360,-0.493191,-0.189286,10.504265,-0.097483,-0.256333,0.055266
2024-01-01 00:00:13.370,-0.47373,0.024317,9.749552,0.065233,-0.279751,0.001151
2024-01-01 00:00:13.380,-0.47993,-0.140345,9.502622,-0.001657,-0.288416,-0.027768
2024-01-01 00:00:13.390,-0.428523,0.039677,9.187902,0.0087,-0.270056,-0.082019
2024-01-01 00:00:13.400,-0.416619,0.179818,8.466011,0.081986,-0.341231,-0.089949
2024-01-01 00:00:13.410,-0.41073,0.157922,8.234922,0.042485,-0.264565,-0.069845
2024-01-01 00:00:13.420,-0.351978,0.334559,8.006168,0.146127,-0.24298,-0.14509
2024-01-01 00:00:13.430,-0.262414,0.294408,7.551269,0.163993,-0.207471,-0.115734
2024-01-01 00:00:13.440,-0.247604,0.190927,7.543579,0.27411,-0.173173,-0.174103
2024-01-01 00:00:13.450,-0.403893,0.272978,7.500518,0.237123,-0.140267,-0.124292
2024-01-01 00:00:13.460,-0.447097,0.290901,7.687929,0.339081,-0.135626,-0.136228
2024-01-01 00:00:13.470,-0.122441,0.188034,7.883772,0.384532,-0.13862,-0.107604
2024-01-01 00:00:13.480,-0.258278,0.255045,8.300811,0.369336,-0.180905,-0.093476
2024-01-01 00:00:13.490,-0.116638,0.296624,9.081744,0.330716,-0.083575,-0.044922
2024-01-01 00:00:13.500,-0.140662,0.185184,9.215122,0.355137,-0.074763,-0.108225
2024-01-01 00:00:13.510,-0.138973,0.353776,9.879666,0.273728,0.026184,-0.039138
2024-01-01 00:00:13.520,0.100671,0.32722,10.29079,0.340457,0.077328,0.050437
2024-01-01 00:00:13.530,0.16948,0.205795,11.018627,0.296604,0.107344,0.009044
2024-01-01 00:00:13.540,0.112553,0.359857,11.458498,0.362236,0.126,0.083071
2024-01-01 00:00:13.550,-0.000828,0.36826,11.733297,0.439628,0.108021,0.120667
2024-01-01 00:00:13.560,0.207751,0.308424,11.894899,0.315252,0.113597,0.114177
2024-01-01 00:00:13.570,0.324393,0.239686,11.949836,0.166055,0.12545,0.127514
2024-01-01 00:00:13.580,0.212376,0.28469,11.824158,0.219313,0.108341,0.157666
2024-01-01 00:00:13.590,0.378532,0.26035,12.194848,0.212057,0.251739,0.173005
2024-01-01 00:00:13.600,0.390899,0.196301,11.577046,0.176077,0.209111,0.099496
2024-01-01 00:00:13.610,0.461432,0.069197,11.476951,0.098625,0.168288,0.089617
2024-01-01 00:00:13.620,0.442014,0.118926,11.13836,0.109063,0.198924,0.057796
2024-01-01 00:00:13.630,0.366121,0.152761,10.435193,-0.005002,0.203299,-0.024336
2024-01-01 00:00:13.640,0.545215,-0.031054,10.175103,-0.03057,0.251867,0.018529
2024-01-01 00:00:13.650,0.436259,0.143839,9.623676,0.008294,0.302785,0.007522
2024-01-01 00:00:13.660,0.440146,-0.106395,9.274084,-0.115127,0.22834,-0.023713
2024-01-01 00:00:13.670,0.355084,-0.101231,8.49314,-0.076913,0.126121,-0.111109
2024-01-01 00:00:13.680,0.375894,-0.195699,7.986423,-0.210373,0.219073,-0.148735
2024-01-01 00:00:13.690,0.316629,-0.160199,7.807035,-0.089819,0.20742,-0.130748
2024-01-01 00:00:13.700,0.344401,-0.351194,7.721497,-0.25053,0.187775,-0.119656
2024-01-01 00:00:13.710,0.461159,-0.286394,7.62034,-0.253894,0.148751,-0.145245
2024-01-01 00:00:13.720,0.176078,-0.357698,7.59239,-0.253798,0.169666,-0.138498
2024-01-01 00:00:13.730,0.114492,-0.283467,7.52104,-0.322562,0.138627,-0.102285
2024-01-01 00:00:13.740,0.315728,-0.23473,8.141822,-0.307116,0.108777,-0.140725
2024-01-01 00:00:13.750,0.133071,-0.278353,8.724543,-0.301266,0.103864,-0.100779
2024-01-01 00:00:13.760,0.04605,-0.531056,8.930139,-0.293293,0.033829,-0.0157
2024-01-01 00:00:13.770,0.131183,-0.184638,9.434802,-0.308429,0.002332,-0.037716
2024-01-01 00:00:13.780,-0.052692,-0.326362,9.937347,-0.358575,0.066649,-0.035192
2024-01-01 00:00:13.790,0.089662,-0.409358,10.416853,-0.35457,-0.003376,0.017235
2024-01-01 00:00:13.800,-0.053599,-0.327232,10.973396,-0.222347,-0.01856,0.041649
2024-01-01 00:00:13.810,-0.196824,-0.313683,11.314191,-0.280283,-0.026356,0.10923
2024-01-01 00:00:13.820,-0.033033,-0.364674,11.551431,-0.357417,-0.087935,0.095053
2024-01-01 00:00:13.830,-0.299125,-0.274837,11.7261,-0.285671,-0.09284,0.146915
2024-01-01 00:00:13.840,-0.232965,-0.314686,11.94573,-0.282846,-0.241374,0.126082
2024-01-01 00:00:13.850,-0.306105,-0.270262,12.050778,-0.24468,-0.173153,0.085866
2024-01-01 00:00:13.860,-0.259169,-0.261427,11.858724,-0.268,-0.210974,0.152117
2024-01-01 00:00:13.870,-0.26674,-0.286961,11.742912,-0.192944,-0.133705,0.133029
2024-01-01 00:00:13.880,-0.412164,-0.124175,11.449732,-0.045264,-0.18402,0.122841
2024-01-01 00:00:13.890,-0.492459,-0.050679,11.1122,-0.068549,-0.271626,0.060076
2024-01-01 00:00:13.900,-0.407014,-0.016655,10.719625,-0.182404,-0.227922,0.025514
2024-01-01 00:00:13.910,-0.50366,0.048186,10.040277,0.043428,-0.241307,0.026947
2024-01-01 00:00:13.920,-0.287934,0.049212,9.322012,0.077746,-0.226731,0.025674
2024-01-01 00:00:13.930,-0.43158,0.021005,8.971726,0.045659,-0.296777,-0.053291
2024-01-01 00:00:13.940,-0.45925,0.170296,8.577759,0.138986,-0.220902,-0.07173
2024-01-01 00:00:13.950,-0.396964,0.032628,7.91014,0.098259,-0.240151,-0.120409
2024-01-01 00:00:13.960,-0.495662,0.105375,8.095622,0.153916,-0.201373,-0.177401
2024-01-01 00:00:13.970,-0.436536,0.134096,7.71401,0.286159,-0.235556,-0.115342
2024-01-01 00:00:13.980,-0.228843,0.328587,7.669183,0.228596,-0.20974,-0.122613
2024-01-01 00:00:13.990,-0.339109,0.345285,7.854474,0.176375,-0.100506,-0.125974
2024-01-01 00:00:14.000,-0.328122,0.332881,7.709099,0.290732,-0.188338,-0.142257
2024-01-01 00:00:14.010,-0.155948,0.399717,8.151723,0.310033,-0.159377,-0.101024
2024-01-01 00:00:14.020,-0.055849,0.259446,8.405049,0.389707,-0.086304,-0.067856
2024-01-01 00:00:14.030,-0.042979,0.369048,8.824581,0.341877,-0.094425,-0.0167
2024-01-01 00:00:14.040,0.030756,0.337911,9.218598,0.326846,-0.071434,-0.00277
2024-01-01 00:00:14.050,-0.057244,0.417741,10.092104,0.402243,0.007087,0.004114
2024-01-01 00:00:14.060,-0.058262,0.338112,10.292038,0.353369,-0.044429,-0.002541
2024-01-01 00:00:14.070,0.227024,0.309182,10.930397,0.302476,0.009,0.073907
2024-01-01 00:00:14.080,0.131093,0.371307,10.96667,0.385784,0.189876,0.105737
2024-01-01 00:00:14.090,0.184712,0.381754,11.769946,0.321344,0.13674,0.142836
2024-01-01 00:00:14.100,0.35614,0.23761,11.999815,0.291224,0.101496,0.179161
2024-01-01 00:00:14.110,0.336113,0.261678,11.996235,0.27546,0.182919,0.14521
2024-01-01 00:00:14.120,0.365878,0.153775,11.970297,0.184917,0.211371,0.212644
2024-01-01 00:00:14.130,0.535951,0.007272,11.968917,0.180734,0.251249,0.090329
2024-01-01 00:00:14.140,0.339714,0.189022,12.043811,0.173164,0.210973,0.141477
2024-01-01 00:00:14.150,0.488584,0.18523,11.125801,0.126785,0.279023,0.083791
2024-01-01 00:00:14.160,0.436483,0.119172,11.112304,0.161828,0.138035,0.023579
2024-01-01 00:00:14.170,0.465142,-0.097396,10.399172,0.069439,0.193659,0.043441
2024-01-01 00:00:14.180,0.571673,-0.009927,10.034759,0.060886,0.257858,-0.028187
2024-01-01 00:00:14.190,0.489693,-0.200001,9.490136,-0.022063,0.265963,-0.024117
2024-01-01 00:00:14.200,0.485737,0.046674,8.96786,-0.010088,0.20034,-0.051995
2024-01-01 00:00:14.210,0.516102,-0.189306,8.577208,-0.082545,0.252027,-0.050391
2024-01-01 00:00:14.220,0.382922,-0.040126,8.02161,-0.139887,0.197762,-0.155564
2024-01-01 00:00:14.230,0.321232,-0.101127,8.046196,-0.17746,0.201913,-0.103532
2024-01-01 00:00:14.240,0.27579,-0.282694,7.426053,-0.258369,0.250891,-0.14125
2024-01-01 00:00:14.250,0.168219,-0.332275,7.693355,-0.216306,0.226295,-0.118972
2024-01-01 00:00:14.260,0.45178,-0.241365,7.598941,-0.271405,0.109749,-0.160367
2024-01-01 00:00:14.270,0.156903,-0.361044,7.624218,-0.318598,0.083337,-0.177023
2024-01-01 00:00:14.280,0.182025,-0.305439,8.090372,-0.258315,0.0904,-0.155842
2024-01-01 00:00:14.290,0.129448,-0.368169,8.180848,-0.392053,0.082881,-0.133909
2024-01-01 00:00:14.300,0.126007,-0.483489,8.849861,-0.362121,0.023446,-0.051536
2024-01-01 00:00:14.310,0.115124,-0.526282,9.111999,-0.296459,0.079735,0.011269
2024-01-01 00:00:14.320,0.066481,-0.33186,9.902236,-0.334219,0.01606,-0.015377
2024-01-01 00:00:14.330,-0.101194,-0.392344,10.200767,-0.349812,-0.01,0.054971
2024-01-01 00:00:14.340,-0.119371,-0.384398,10.749642,-0.327601,-0.122217,0.022976
2024-01-01 00:00:14.350,-0.133417,-0.27262,11.285024,-0.319318,-0.028315,0.102973
2024-01-01 00:00:14.360,-0.223834,-0.218118,11.47165,-0.387827,-0.254308,0.141252
2024-01-01 00:00:14.370,-0.120512,-0.313288,11.829738,-0.308948,-0.096686,0.094858
2024-01-01 00:00:14.380,-0.251618,-0.294287,11.75305,-0.186213,-0.114893,0.141847
2024-01-01 00:00:14.390,-0.269974,-0.198975,12.099611,-0.271953,-0.204267,0.171135
2024-01-01 00:00:14.400,-0.309162,-0.316262,12.176398,-0.223622,-0.137572,0.055282
2024-01-01 00:00:14.410,-0.296851,-0.15577,12.124022,-0.200703,-0.220226,0.169281
2024-01-01 00:00:14.420,-0.399507,-0.093042,11.410362,-0.141543,-0.226872,0.118794
2024-01-01 00:00:14.430,-0.535404,-0.044492,11.120987,-0.128066,-0.222833,0.102826
2024-01-01 00:00:14.440,-0.411521,-0.214232,10.277517,-0.034955,-0.087058,0.037705
2024-01-01 00:00:14.450,-0.501454,-0.079781,10.272324,-0.009007,-0.182415,-0.035528
2024-01-01 00:00:14.460,-0.491416,-0.04846,9.652896,0.060478,-0.214458,-0.002628
2024-01-01 00:00:14.470,-0.395932,0.070171,8.968147,0.009633,-0.291663,-0.054927
2024-01-01 00:00:14.480,-0.331513,0.14018,8.772006,0.084703,-0.232029,-0.082462
2024-01-01 00:00:14.490,-0.410794,0.259623,8.159824,0.1286,-0.26982,-0.077281
2024-01-01 00:00:14.500,-0.364138,0.136566,7.827646,0.198945,-0.174919,-0.107614
2024-01-01 00:00:14.510,-0.223764,0.170255,7.769034,0.1704,-0.192944,-0.086381
2024-01-01 00:00:14.520,-0.306917,0.333095,7.453336,0.286904,-0.237436,-0.145191
2024-01-01 00:00:14.530,-0.079874,0.292652,7.79948,0.328246,-0.155949,-0.168266
2024-01-01 00:00:14.540,-0.200709,0.39451,7.637729,0.243654,-0.17911,-0.142962
2024-01-01 00:00:14.550,-0.341431,0.33641,7.896936,0.288768,-0.103867,-0.107227
2024-01-01 00:00:14.560,-0.092214,0.236725,8.270823,0.302698,-0.127665,-0.065165
2024-01-01 00:00:14.570,-0.07184,0.23418,8.949555,0.472449,-0.055477,-0.110445
2024-01-01 00:00:14.580,0.052378,0.223641,9.223926,0.326267,0.0093,-0.033396
2024-01-01 00:00:14.590,0.055269,0.402962,9.621628,0.43388,-0.001867,0.049229
2024-01-01 00:00:14.600,0.042535,0.442595,10.239616,0.284176,0.01024,0.02828
2024-01-01 00:00:14.610,0.007141,0.488272,10.804281,0.290841,0.068544,0.09605
2024-01-01 00:00:14.620,0.138417,0.395991,11.056771,0.294212,0.121047,0.111879
2024-01-01 00:00:14.630,0.135056,0.405352,11.409332,0.270041,0.057473,0.1495
2024-01-01 00:00:14.640,0.201872,0.245489,12.15154,0.278495,0.150985,0.113765
2024-01-01 00:00:14.650,0.337262,0.174999,11.849507,0.232073,0.227086,0.123696
2024-01-01 00:00:14.660,0.461712,0.307528,11.957127,0.198555,0.210972,0.150307
2024-01-01 00:00:14.670,0.393206,0.241711,11.859282,0.26622,0.203794,0.097513
2024-01-01 00:00:14.680,0.29459,0.182854,11.646652,0.235448,0.248798,0.121443
2024-01-01 00:00:14.690,0.449186,0.168857,11.49626,0.185332,0.252413,0.116204
2024-01-01 00:00:14.700,0.52712,0.125468,11.152714,0.125813,0.277341,0.135391
2024-01-01 00:00:14.710,0.394553,0.16272,10.5074,0.064652,0.145101,0.062761
2024-01-01 00:00:14.720,0.438572,0.123204,9.870605,-0.005246,0.171935,0.035535
2024-01-01 00:00:14.730,0.450359,0.022468,9.736777,-0.068727,0.299788,0.016908
2024-01-01 00:00:14.740,0.380216,0.006205,9.035079,-0.043309,0.170852,-0.0808
2024-01-01 00:00:14.750,0.482712,-0.059893,8.853649,-0.1597,0.259438,-0.087855
2024-01-01 00:00:14.760,0.403196,-0.176107,7.867445,-0.18891,0.211771,-0.036718
2024-01-01 00:00:14.770,0.422881,-0.115004,7.930225,-0.117883,0.166478,-0.132539
2024-01-01 00:00:14.780,0.289507,-0.321033,7.98812,-0.114441,0.217764,-0.110348
2024-01-01 00:00:14.790,0.29183,-0.156278,7.560337,-0.220924,0.191622,-0.120861
2024-01-01 00:00:14.800,0.346523,-0.364017,7.610765,-0.213133,0.265924,-0.191985
2024-01-01 00:00:14.810,0.216912,-0.269832,7.836761,-0.304989,0.105837,-0.128247
2024-01-01 00:00:14.820,0.33957,-0.380597,7.965084,-0.379868,0.183902,-0.115672
2024-01-01 00:00:14.830,0.121397,-0.284774,8.353377,-0.298437,0.102825,-0.086225
2024-01-01 00:00:14.840,0.121225,-0.343377,8.776702,-0.312198,0.02431,-0.089621
2024-01-01 00:00:14.850,0.126346,-0.475259,9.21335,-0.344095,0.068706,-0.067771
2024-01-01 00:00:14.860,-0.113941,-0.316344,9.998938,-0.362119,0.028025,-0.013966
2024-01-01 00:00:14.870,-0.19354,-0.393828,10.390668,-0.299483,-0.027472,0.031942
2024-01-01 00:00:14.880,-0.22622,-0.270002,10.83846,-0.38978,-0.044556,0.103109
2024-01-01 00:00:14.890,-0.053247,-0.328689,11.348163,-0.367484,-0.115546,0.151125
2024-01-01 00:00:14.900,-0.246405,-0.281022,11.536953,-0.363061,-0.153654,0.162348
2024-01-01 00:00:14.910,-0.042871,-0.368899,11.715093,-0.288045,-0.099543,0.163616
2024-01-01 00:00:14.920,-0.334595,-0.315131,11.886627,-0.322379,-0.172005,0.117621
